# PDIoT walking data,,,,,,,
# Start time: 20180925T200210,,,,,,,
# Group: A,,,,,,,
# Subject: HelloWorld,,,,,,,
# Activity type: Climbing stairs,,,,,,,
# Sensor position: Wrist,,,,,,,
# Side of body: Left,,,,,,,
# Sensor mounting: Body,,,,,,,
# Number of steps: 100,,,,,,,
# Notes: ,,,,,,,
,,,,,,,
timestamp,seq,accel_x,accel_y,accel_z,gyro_x,gyro_y,gyro_z
1.5379E+12,0,-0.34179688,0.85058594,-0.07910156,5.8125,9.0625,10.625
1.5379E+12,1,-0.30273438,1.0771484,-0.008789063,-25.25,6.78125,3.65625
1.5379E+12,2,-0.3330078,0.9423828,-0.033203125,11.1875,2.75,-0.71875
1.5379E+12,3,-0.3203125,0.9326172,-0.03515625,-0.59375,2.15625,3.3125
1.5379E+12,4,-0.30078125,0.9765625,-0.037109375,-2.46875,1.90625,2.9375
1.5379E+12,5,-0.30371094,0.97753906,-0.048828125,2.71875,-0.78125,2.03125
1.5379E+12,6,-0.29296875,0.9628906,-0.051757812,-1.5625,-3.03125,3.90625
1.5379E+12,7,-0.265625,0.98046875,-0.06738281,2.15625,-5.0625,8.375
1.5379E+12,8,-0.26660156,0.9404297,-0.07519531,1.71875,-5.0625,12.28125
1.5379E+12,9,-0.29785156,0.96191406,-0.08496094,-3.75,-3.78125,17.21875
1.5379E+12,10,-0.27441406,0.9667969,-0.09082031,4.96875,-5.59375,20.09375
1.5379E+12,11,-0.22363281,0.9589844,-0.087890625,6.375,-8.65625,19.21875
1.5379E+12,12,-0.19726562,0.9482422,-0.10058594,-0.71875,-16.59375,20.9375
1.5379E+12,13,-0.20214844,0.9345703,-0.10449219,-9.75,-26.90625,24.40625
1.5379E+12,14,-0.1640625,0.91308594,-0.08300781,-12.84375,-31.40625,32.53125
1.5379E+12,15,-0.16503906,0.9404297,-0.06347656,-22.625,-36.40625,42.25
1.5379E+12,16,-0.15917969,0.97558594,0.041992188,-16.8125,-37.03125,48.90625
1.5379E+12,17,-0.14453125,0.98535156,0.125,-24.6875,-30,51.9375
1.5379E+12,18,-0.115234375,0.9423828,0.12402344,-36.28125,-28.375,53.78125
1.5379E+12,19,-0.11621094,0.9628906,0.12792969,-43.0625,-32.03125,54.6875
1.5379E+12,20,-0.12402344,0.96972656,0.12109375,-32.5625,-40.375,48.90625
1.5379E+12,21,-0.14550781,1.0380859,0.12792969,-31.28125,-44.21875,41.09375
1.5379E+12,22,-0.19335938,1.0341797,0.13378906,-36.28125,-40.03125,35.96875
1.5379E+12,23,-0.19238281,1.0566406,0.12988281,-20.375,-33.125,28.75
1.5379E+12,24,-0.171875,1.1962891,0.234375,3.5,-5.46875,14.28125
1.5379E+12,25,0.041015625,1.0527344,0.3017578,-1.9375,89.1875,-3.71875
1.5379E+12,26,0.051757812,0.9609375,0.31054688,17.90625,97.71875,-20.5
1.5379E+12,27,0.08886719,0.94140625,0.34277344,27.78125,95.53125,-28.0625
1.5379E+12,28,0.125,0.8466797,0.44726562,2.09375,93.15625,-27.59375
1.5379E+12,29,0.13671875,0.8544922,0.41992188,27.625,94.5625,-21.90625
1.5379E+12,30,0.021484375,0.74316406,0.39941406,40.4375,88.40625,-20.3125
1.5379E+12,31,-0.002929688,0.8408203,0.37304688,23.65625,86.3125,-20.3125
1.5379E+12,32,-0.008789063,0.8642578,0.31835938,23.28125,73,-24.46875
1.5379E+12,33,-0.055664062,0.90234375,0.2626953,16.1875,58.3125,-27.28125
1.5379E+12,34,-0.037109375,0.82421875,0.16015625,64.96875,42.75,-30.6875
1.5379E+12,35,-0.07519531,0.89941406,0.08496094,12,32.71875,-35.75
1.5379E+12,36,-0.11230469,1.1904297,0.038085938,112.4375,19.78125,-45.53125
1.5379E+12,37,-0.234375,0.82910156,0.10644531,121.1875,2.6875,-34.71875
1.5379E+12,38,-0.09375,1.2753906,-0.12695312,129.125,-8.15625,-29.34375
1.5379E+12,39,-0.26464844,1.4052734,-0.07714844,88.15625,-24.03125,-12.09375
1.5379E+12,40,0.29589844,0.9609375,-0.25878906,242.5,-46.5,75.6875
1.5379E+12,41,0.46972656,-0.25097656,-0.63183594,131.0625,-83.0625,179.5625
1.5379E+12,42,0.41503906,-0.037109375,-0.34960938,43.28125,-93,266.1875
1.5379E+12,43,0.83984375,-0.078125,-0.021484375,-8.9375,-55.71875,356.21875
1.5379E+12,44,1.2626953,0.66308594,0.22167969,-92.4375,-8.84375,403.875
1.5379E+12,45,1.2568359,0.62402344,0.12792969,9.0625,17,437.875
1.5379E+12,46,1.9453125,0.203125,0.1796875,-50.5,74.53125,454.90625
1.5379E+12,47,2.0029297,0.3330078,0.16894531,-201.5625,75.75,426.75
1.5379E+12,48,1.8925781,0.33203125,0.19921875,-272.25,49.5625,356.625
1.5379E+12,49,1.7685547,0.3876953,-0.19042969,-223.5,15.34375,289.9375
1.5379E+12,50,1.4638672,0.12402344,-0.012695313,-55.15625,-17.125,251.59375
1.5379E+12,51,1.4980469,0.21777344,-0.21875,-1,13.9375,197.34375
1.5379E+12,52,1.1728516,0.21875,-0.31445312,20.71875,14,155.59375
1.5379E+12,53,1.0332031,0.3564453,-0.2783203,12.09375,25.28125,98.53125
1.5379E+12,54,0.9980469,0.33203125,-0.3564453,43.25,23.46875,39.375
1.5379E+12,55,0.9785156,0.44140625,-0.29785156,50.8125,10.34375,-28.625
1.5379E+12,56,0.7783203,0.33789062,-0.27441406,78.8125,-6.40625,-91.96875
1.5379E+12,57,0.8808594,0.26953125,-0.20507812,94.6875,-21.53125,-143.5625
1.5379E+12,58,1.1601562,0.32128906,-0.17285156,123.3125,-44.96875,-184.5625
1.5379E+12,59,1.5488281,0.25683594,-0.07421875,134.125,-69.0625,-229.0625
1.5379E+12,60,1.7753906,0.0234375,-0.012695313,113.3125,-93.625,-262.625
1.5379E+12,61,1.84375,0.080078125,0.008789063,49.28125,-100.15625,-277.8125
1.5379E+12,62,1.7773438,0.16699219,-0.009765625,-8.71875,-90.625,-287.53125
1.5379E+12,63,1.5976562,0.43554688,0.022460938,-18.03125,-67.78125,-285.75
1.5379E+12,64,1.4628906,0.37890625,0.020507812,51.09375,-66.34375,-270.875
1.5379E+12,65,1.2060547,0.375,0.038085938,33.65625,-62.3125,-245.90625
1.5379E+12,66,0.97753906,0.37109375,-0.05078125,31.53125,-53.15625,-218.375
1.5379E+12,67,0.77734375,0.40527344,-0.1328125,38.09375,-49.0625,-194.625
1.5379E+12,68,0.6699219,0.3173828,-0.055664062,33.90625,-44.78125,-165.78125
1.5379E+12,69,0.9951172,0.24121094,-0.48632812,-30.6875,113.46875,207.09375
1.5379E+12,70,1.171875,0.36621094,-0.4111328,-30.5625,105.65625,238.59375
1.5379E+12,71,1.4541016,0.359375,-0.46777344,6.0625,84.1875,267.28125
1.5379E+12,72,1.5302734,0.21386719,-0.36816406,10.21875,56.78125,300.25
1.5379E+12,73,1.7001953,0.36621094,-0.25976562,-56.5,58.5,320.6875
1.5379E+12,74,1.6230469,0.46484375,-0.27734375,-47.84375,40.59375,309.28125
1.5379E+12,75,1.4355469,0.3173828,-0.28320312,-33.4375,32.375,267.09375
1.5379E+12,76,1.2275391,0.13183594,-0.3154297,-51.1875,30.65625,229.125
1.5379E+12,77,1.1748047,0.09667969,-0.3154297,-52.09375,19.1875,184.34375
1.5379E+12,78,1.0371094,-0.15917969,-0.4189453,-53.4375,9.53125,147.03125
1.5379E+12,79,1.0976562,-0.37304688,-0.3876953,-73.46875,-6.6875,123.78125
1.5379E+12,80,1.2626953,-0.22167969,-0.36914062,-122.09375,-13.28125,105.40625
1.5379E+12,81,1.2177734,0.001953125,-0.31347656,-76.09375,-21.21875,83.75
1.5379E+12,82,1.1210938,0.068359375,-0.3076172,-18.03125,-18.46875,47.6875
1.5379E+12,83,0.89941406,0.14746094,-0.26464844,3.4375,-8.78125,-7.3125
1.5379E+12,84,0.68359375,-0.020507812,-0.14746094,76.5,-11.46875,-69.40625
1.5379E+12,85,0.39648438,-0.103515625,0.111328125,149.25,-27.03125,-114.5625
1.5379E+12,86,0.7949219,-0.25585938,0.006835938,127.59375,-13.53125,-153.6875
1.5379E+12,87,0.8828125,0.076171875,-0.038085938,156.21875,-25.96875,-166.625
1.5379E+12,88,1.3183594,-0.038085938,0.13183594,179.03125,-50.40625,-194.40625
1.5379E+12,89,1.4804688,0.08691406,0.15429688,135.65625,-68.34375,-233.875
1.5379E+12,90,1.8291016,0.12988281,0.13476562,132.96875,-84.8125,-247.4375
1.5379E+12,91,1.8017578,0.15820312,0.1328125,100.5,-96.71875,-254.75
1.5379E+12,92,1.8076172,0.25585938,0.10253906,73.625,-89.46875,-265.375
1.5379E+12,93,1.7216797,0.22558594,0.11621094,51.59375,-87.625,-266.46875
1.5379E+12,94,1.5888672,0.38671875,0.18554688,40.96875,-79.9375,-262.15625
1.5379E+12,95,1.3916016,0.31054688,0.1796875,59.28125,-75.0625,-254.28125
1.5379E+12,96,1.1552734,0.28125,0.11230469,22.84375,-56.9375,-246.28125
1.5379E+12,97,0.9580078,0.34179688,-0.014648438,7.09375,-38.4375,-237.25
1.5379E+12,98,0.8378906,0.3125,-0.001953125,22.4375,-25.96875,-211
1.5379E+12,99,0.6845703,0.26367188,-0.037109375,40.5625,-13.28125,-168.09375
1.5379E+12,100,0.6191406,0.27441406,-0.103515625,32,14.46875,-107.90625
1.5379E+12,101,0.6621094,0.22363281,-0.13867188,-6.5,45.125,-33.875
1.5379E+12,102,0.84375,0.38085938,-0.14648438,-46.25,99.3125,57.75
1.5379E+12,103,0.72265625,0.34277344,-0.38964844,-1.0625,126.46875,129.53125
1.5379E+12,104,0.90625,0.27734375,-0.41796875,-17.6875,130.28125,175.96875
1.5379E+12,105,1.0390625,0.31152344,-0.4169922,9.46875,119.875,221.3125
1.5379E+12,106,1.2636719,0.13671875,-0.51171875,4.53125,105,262.21875
1.5379E+12,107,1.4042969,0.11328125,-0.45898438,-38.90625,86.1875,298.59375
1.5379E+12,108,1.6552734,0.25097656,-0.42871094,-67.125,73.8125,328.4375
1.5379E+12,109,1.7099609,0.4140625,-0.45996094,-38.125,49.09375,327.59375
1.5379E+12,110,1.4277344,0.36132812,-0.35742188,-3.15625,28.71875,288.625
1.5379E+12,111,1.3613281,0.35742188,-0.29589844,11.3125,26.1875,219.96875
1.5379E+12,112,1.359375,0.24121094,-0.25976562,2.34375,15.75,135.6875
1.5379E+12,113,1.2685547,0.33691406,-0.26367188,-14.625,12.09375,70.375
1.5379E+12,114,0.9736328,0.36328125,-0.265625,-26.65625,7.15625,21.78125
1.5379E+12,115,0.9296875,0.4189453,-0.28320312,-41.46875,15.8125,-19.65625
1.5379E+12,116,0.875,0.5498047,-0.25585938,9.3125,2.15625,-51.8125
1.5379E+12,117,0.78808594,0.4873047,-0.19433594,107.03125,-12.25,-100.09375
1.5379E+12,118,1.1396484,0.33007812,-0.15722656,166.21875,-33,-144.96875
1.5379E+12,119,1.484375,0.23339844,-0.08886719,183.25,-61.25,-176.09375
1.5379E+12,120,1.7695312,0.07519531,-0.0546875,177.6875,-94.46875,-201.40625
1.5379E+12,121,1.7353516,-0.022460938,-0.004882813,85.96875,-112.40625,-220.6875
1.5379E+12,122,1.4941406,0.10839844,-0.002929688,28.09375,-103.4375,-237.1875
1.5379E+12,123,1.2890625,0.16601562,-0.02734375,10.875,-94.34375,-244.625
1.5379E+12,124,1.0927734,0.24707031,-0.024414062,23.9375,-81.84375,-240.90625
1.5379E+12,125,1.0908203,0.23828125,-0.009765625,30.53125,-72.8125,-225.46875
1.5379E+12,126,1.0732422,0.20605469,0.020507812,27.1875,-68.34375,-198.65625
1.5379E+12,127,0.9638672,0.21191406,-0.029296875,13.5625,-52.21875,-161.90625
1.5379E+12,128,0.93359375,0.24609375,-0.07421875,14.65625,-30.5625,-111.3125
1.5379E+12,129,0.8886719,0.20996094,-0.11328125,3.3125,-3.84375,-49.5625
1.5379E+12,130,0.8515625,0.21875,-0.14746094,-28.96875,31.15625,16.96875
1.5379E+12,131,0.71484375,0.23828125,-0.25683594,-23.46875,56.59375,80.5
1.5379E+12,132,0.6542969,0.16992188,-0.2626953,-24.5625,79.1875,125.1875
1.5379E+12,133,0.8847656,0.23242188,-0.3671875,-26.65625,76.625,160.40625
1.5379E+12,134,1.03125,0.13085938,-0.32128906,-33.25,67.40625,201.96875
1.5379E+12,135,1.2490234,0.15136719,-0.296875,-69.375,60.4375,238.65625
1.5379E+12,136,1.3232422,0.23046875,-0.2626953,-86.90625,48,262.03125
1.5379E+12,137,1.3173828,0.31152344,-0.28222656,-86.53125,43.34375,267.28125
1.5379E+12,138,1.3134766,0.24804688,-0.31054688,-96.21875,28.40625,252.8125
1.5379E+12,139,1.2705078,0.2890625,-0.25195312,-138.53125,16.8125,211.75
1.5379E+12,140,1.1552734,0.28515625,-0.19628906,-137.84375,-5.71875,151.5625
1.5379E+12,141,1.1132812,0.3017578,-0.16601562,-110.625,-7.4375,101.75
1.5379E+12,142,1.2001953,0.390625,-0.11328125,-45.03125,-10.3125,65.3125
1.5379E+12,143,1.1181641,0.41992188,-0.12695312,5.21875,-0.78125,42.59375
1.5379E+12,144,1.1035156,0.32226562,-0.16699219,8.8125,12.71875,30.34375
1.5379E+12,145,1.2597656,0.38671875,-0.22851562,-5.65625,28.03125,18.8125
1.5379E+12,146,1.3115234,0.4921875,-0.24023438,-1.75,27.125,-15.5625
1.5379E+12,147,0.72558594,0.40625,-0.18261719,81.5,20.21875,-84.53125
1.5379E+12,148,0.9980469,0.4140625,-0.18554688,170.1875,13.625,-138.90625
1.5379E+12,149,1.3720703,0.28222656,-0.17480469,198.3125,-11.28125,-180.125
1.5379E+12,150,1.546875,0.15234375,-0.046875,88.59375,-38,-216.84375
1.5379E+12,151,1.5380859,0.45898438,-0.040039062,10.53125,-33.625,-249.625
1.5379E+12,152,1.5205078,0.30566406,-0.048828125,51.71875,-49.59375,-269.46875
1.5379E+12,153,1.3173828,0.38476562,-0.068359375,47.625,-50.09375,-274.15625
1.5379E+12,154,1.2138672,0.35351562,-0.080078125,58.0625,-58.46875,-274.84375
1.5379E+12,155,1.1181641,0.2861328,-0.10644531,39.75,-65.34375,-258.71875
1.5379E+12,156,0.9746094,0.34472656,-0.083984375,42.6875,-75.46875,-221.96875
1.5379E+12,157,0.80859375,0.3046875,-0.043945312,31.15625,-55.90625,-166.5625
1.5379E+12,158,0.7080078,0.3330078,-0.103515625,34.875,-28.59375,-103.6875
1.5379E+12,159,0.7060547,0.2529297,-0.08496094,35.3125,-3.15625,-27.53125
1.5379E+12,160,0.8496094,0.23925781,-0.09472656,16.25,27.71875,48.28125
1.5379E+12,161,0.7685547,0.22558594,-0.10839844,-4.1875,53.1875,121.96875
1.5379E+12,162,0.72265625,0.14746094,-0.17773438,-13.09375,76.125,172.96875
1.5379E+12,163,0.91308594,0.14550781,-0.19628906,-25.5,80.8125,216.6875
1.5379E+12,164,1.1542969,0.15039062,-0.20996094,-32.6875,89.375,263.25
1.5379E+12,165,1.5019531,0.16308594,-0.14941406,-69,91.25,289
1.5379E+12,166,1.5986328,0.3154297,-0.16308594,-117.59375,77.03125,279.25
1.5379E+12,167,1.4482422,0.6503906,-0.27246094,-29.75,35.96875,250.125
1.5379E+12,168,1.0488281,0.35546875,-0.16894531,-75,-4.5625,106.5625
1.5379E+12,169,1.1318359,0.15429688,-0.26171875,9.46875,1.1875,52.0625
1.5379E+12,170,1.0068359,0.2734375,-0.19921875,39.9375,7.9375,3.71875
1.5379E+12,171,1.109375,0.41796875,-0.22753906,74.3125,10.6875,-57
1.5379E+12,172,0.91796875,0.28125,-0.19433594,70.9375,2.6875,-120
1.5379E+12,173,1.0058594,0.234375,-0.13769531,76.75,-0.84375,-184.5625
1.5379E+12,174,1.3095703,0.32910156,-0.13183594,122.53125,-6.6875,-222.71875
1.5379E+12,175,1.6953125,0.15917969,-0.09863281,160.375,-34.34375,-245.125
1.5379E+12,176,1.6640625,0.109375,-0.08886719,112.28125,-55.53125,-257.5625
1.5379E+12,177,1.5917969,0.16015625,-0.0625,87.4375,-67.65625,-265.9375
1.5379E+12,178,1.4882812,0.15917969,-0.051757812,69.0625,-71.34375,-267.09375
1.5379E+12,179,1.3017578,0.23925781,-0.109375,43.96875,-77.5,-259.40625
1.5379E+12,180,1.1591797,0.2265625,-0.07714844,18.40625,-80.4375,-240.96875
1.5379E+12,181,1.0224609,0.30664062,-0.040039062,6.5,-87.875,-215.6875
1.5379E+12,182,0.87402344,0.27539062,-0.044921875,-4.375,-77.875,-179.875
1.5379E+12,183,0.7578125,0.29492188,-0.099609375,-12.3125,-57.21875,-138.84375
1.5379E+12,184,0.6513672,0.32714844,-0.13183594,-11.28125,-35.125,-87.53125
1.5379E+12,185,0.6611328,0.3388672,-0.13183594,7.09375,-6.875,-20.4375
1.5379E+12,186,0.7734375,0.28222656,-0.17675781,14.96875,28.71875,53.71875
1.5379E+12,187,0.77734375,0.24316406,-0.22753906,-11.09375,48.34375,119.625
1.5379E+12,188,0.65527344,0.25195312,-0.3359375,-10.84375,47.125,166.75
1.5379E+12,189,0.7685547,0.15917969,-0.21679688,-23.59375,52.75,204.96875
1.5379E+12,190,1.1992188,0.23730469,-0.21972656,-103.375,73.0625,238.40625
1.5379E+12,191,1.5625,0.36523438,-0.21972656,-114.96875,49.28125,266.84375
1.5379E+12,192,1.5322266,0.4638672,-0.1328125,-92.5625,23.03125,273.5625
1.5379E+12,193,1.4697266,0.4169922,-0.16992188,-54.59375,11.84375,270.5
1.5379E+12,194,1.4003906,0.3203125,-0.25097656,-62.78125,13.09375,247.8125
1.5379E+12,195,1.2558594,0.27246094,-0.25585938,-90,2.34375,209.96875
1.5379E+12,196,1.2080078,0.4013672,-0.23144531,-79.09375,-13.53125,163.21875
1.5379E+12,197,1.2451172,0.30664062,-0.2685547,-38.1875,-23.78125,109.75
1.5379E+12,198,1.2333984,0.10839844,-0.3017578,-31.90625,-30.375,85.03125
1.5379E+12,199,1.0703125,0.11816406,-0.35546875,-51.6875,-40.875,82.03125
1.5379E+12,200,0.9580078,0.03125,-0.33984375,-81.875,-30.1875,93.6875
1.5379E+12,201,1.0244141,0.20898438,-0.33984375,-44.65625,-26.34375,68.90625
1.5379E+12,202,1.015625,0.20410156,-0.26660156,16.1875,-19.03125,33.4375
1.5379E+12,203,0.9589844,0.2109375,-0.14453125,55.125,-9.75,0
1.5379E+12,204,0.69140625,0.3232422,-0.07128906,93.84375,-7.5,-51.625
1.5379E+12,205,0.79785156,0.35742188,0.043945312,140.71875,1.0625,-98.6875
1.5379E+12,206,1.0380859,0.3251953,0.0625,198.09375,-2.4375,-138.96875
1.5379E+12,207,1.3779297,0.23632812,0.047851562,189.53125,-15.5,-173.6875
1.5379E+12,208,1.5683594,0.19824219,0.030273438,141.1875,-36,-201.03125
1.5379E+12,209,1.5917969,0.1640625,0.049804688,51.28125,-37.9375,-234.125
1.5379E+12,210,1.5390625,0.37304688,0.002929688,29.3125,-25.875,-268.625
1.5379E+12,211,1.4404297,0.45996094,-0.026367188,46.28125,-26.28125,-301.5625
1.5379E+12,212,1.2851562,0.453125,-0.043945312,56.46875,-31.46875,-291.125
1.5379E+12,213,1.1542969,0.55078125,-0.099609375,29.1875,-27.5,-278.3125
1.5379E+12,214,0.9345703,0.60058594,-0.07910156,30.34375,-26.71875,-250.59375
1.5379E+12,215,0.74609375,0.52734375,-0.052734375,46.96875,-23.25,-200.3125
1.5379E+12,216,0.6308594,0.4814453,-0.06933594,38.0625,-11.9375,-130.3125
1.5379E+12,217,0.76660156,0.37890625,-0.07714844,6.96875,9.71875,-49.96875
1.5379E+12,218,0.42382812,0.09472656,0.009765625,16.75,35.90625,34.5625
1.5379E+12,219,0.5439453,0.1171875,-0.053710938,17.0625,84.84375,105.34375
1.5379E+12,220,0.8564453,0.16796875,-0.13476562,42.8125,113.65625,187.25
1.5379E+12,221,1.0791016,0.0859375,-0.30566406,26.21875,116.46875,241.8125
1.5379E+12,222,1.2792969,0.123046875,-0.234375,-14.125,96.4375,277.09375
1.5379E+12,223,1.4189453,0.13574219,-0.2763672,-20.65625,76.8125,303.09375
1.5379E+12,224,1.5761719,0.28320312,-0.30273438,-12.71875,66.25,300.34375
1.5379E+12,225,1.4921875,0.34960938,-0.3076172,28.59375,51.84375,271
1.5379E+12,226,1.4277344,0.30078125,-0.26171875,44.8125,59.90625,221.625
1.5379E+12,227,1.4423828,0.34277344,-0.3564453,92.78125,47.8125,162
1.5379E+12,228,1.2021484,-0.18945312,-0.34277344,109.28125,42.0625,137.15625
1.5379E+12,229,0.96777344,-0.3251953,-0.4814453,81.1875,28.65625,184.6875
1.5379E+12,230,0.9941406,-0.2109375,-0.5449219,-0.34375,23.46875,166.375
1.5379E+12,231,1.0214844,-0.4921875,-0.5361328,-101.96875,3.4375,130.1875
1.5379E+12,232,1.1552734,-0.12207031,-0.22070312,-50.40625,-47.59375,107.3125
1.5379E+12,233,1.2226562,-0.27441406,-0.099609375,-55.75,-48.25,74.46875
1.5379E+12,234,1.1474609,0.25878906,-0.09277344,-90.6875,-50.875,24.84375
1.5379E+12,235,1.0527344,0.25,-0.08984375,-22.5625,-42.40625,-13.78125
1.5379E+12,236,0.83496094,0.46875,-0.13867188,14.78125,-33.5625,-78.125
1.5379E+12,237,0.9453125,0.23828125,-0.004882813,87.96875,-41.0625,-139.46875
1.5379E+12,238,1.3798828,0.23046875,-0.14746094,82.96875,-42.09375,-216.375
1.5379E+12,239,1.59375,0.19921875,0.038085938,73.9375,-49.375,-281.90625
1.5379E+12,240,1.9873047,0.22167969,0.056640625,81.5625,-55.65625,-329.21875
1.5379E+12,241,2.0029297,0.15136719,0.0625,97.8125,-67.96875,-345.40625
1.5379E+12,242,2.0029297,0.09277344,0.017578125,64.15625,-75.125,-339.34375
1.5379E+12,243,1.9072266,0.13378906,0.006835938,10.15625,-69.9375,-321.21875
1.5379E+12,244,1.5917969,0.20410156,-0.012695313,-22.8125,-43.0625,-306.9375
1.5379E+12,245,1.4609375,0.28808594,-0.048828125,0.4375,-24.28125,-291.375
1.5379E+12,246,1.3798828,0.29785156,-0.045898438,55.9375,-20.25,-265.625
1.5379E+12,247,1.1943359,0.09472656,-0.06542969,61.84375,-21.03125,-231.0625
1.5379E+12,248,0.9404297,0.078125,-0.07519531,19.90625,-10.84375,-185.40625
1.5379E+12,249,0.76464844,0.055664062,-0.16113281,21.8125,12.09375,-126.40625
1.5379E+12,250,0.61816406,-0.055664062,-0.11230469,-7.84375,37,-46.9375
1.5379E+12,251,0.4453125,0.09472656,-0.20898438,-5.71875,76.4375,37.90625
1.5379E+12,252,0.45996094,0.05859375,-0.34570312,11.9375,93.46875,116.65625
1.5379E+12,253,0.6591797,0.09082031,-0.265625,-38.78125,112.8125,192.09375
1.5379E+12,254,1.0126953,0.24414062,-0.32714844,-65.28125,123.84375,272.71875
1.5379E+12,255,1.375,0.2529297,-0.31640625,-44.15625,113.84375,341.875
1.5379E+12,256,1.6650391,0.28710938,-0.25683594,-37.03125,96.09375,386.96875
1.5379E+12,257,1.9033203,0.44921875,-0.24902344,-31.40625,83.625,393.6875
1.5379E+12,258,2.0029297,0.45898438,-0.2734375,-25.625,64.40625,358.59375
1.5379E+12,259,1.6181641,0.3017578,-0.24316406,-54.1875,59.59375,280.9375
1.5379E+12,260,1.4638672,0.095703125,-0.3564453,-63.15625,51.96875,210.03125
1.5379E+12,261,1.3564453,0.10839844,-0.35351562,-74.875,26.25,163.21875
1.5379E+12,262,1.1679688,-0.19921875,-0.3876953,-119,18.75,157.53125
1.5379E+12,263,1.1123047,0.061523438,-0.41210938,-213.0625,3.0625,112.96875
1.5379E+12,264,1.0800781,0.48535156,-0.30859375,-115.03125,-16.84375,59.34375
1.5379E+12,265,0.96972656,0.3515625,-0.18652344,40.25,-21.28125,16.71875
1.5379E+12,266,0.91308594,0.5058594,-0.107421875,129,-24.65625,-35.6875
1.5379E+12,267,0.9003906,0.14648438,-0.045898438,153.21875,-28.375,-84.21875
1.5379E+12,268,0.9404297,0.27539062,-0.055664062,108.65625,-34.96875,-130.25
1.5379E+12,269,1.2392578,0.25683594,9.77E-04,168,-44.90625,-168.4375
1.5379E+12,270,1.6367188,0.1328125,0.020507812,223.40625,-74.75,-208.1875
1.5379E+12,271,1.7910156,0.008789063,0.125,191.1875,-98.5,-245.90625
1.5379E+12,272,1.7412109,0.05859375,0.030273438,112.4375,-108.1875,-268.1875
1.5379E+12,273,1.6064453,0.29785156,0.08496094,37.1875,-101.65625,-296.25
1.5379E+12,274,1.6367188,0.5058594,0.11425781,80.15625,-78.71875,-304.0625
1.5379E+12,275,1.4736328,0.4736328,0.10058594,143.09375,-90.5,-295.46875
1.5379E+12,276,1.2226562,0.2529297,0.068359375,107.1875,-93.90625,-273.375
1.5379E+12,277,0.9638672,0.4609375,-0.0078125,-1.75,-83.0625,-259.15625
1.5379E+12,278,0.78125,0.56933594,-0.0703125,-26.59375,-64.9375,-247.25
1.5379E+12,279,0.6923828,0.67871094,-0.15234375,-22.1875,-48.25,-236.8125
1.5379E+12,280,0.50390625,0.6611328,-0.119140625,1.5625,-32.8125,-214.59375
1.5379E+12,281,0.3623047,0.52441406,-0.15722656,-21.03125,-16.28125,-158.625
1.5379E+12,282,0.171875,0.5175781,-0.14160156,-50.8125,16.8125,-77.6875
1.5379E+12,283,0.46191406,0.52246094,-0.15625,-34.875,83.09375,9.40625
1.5379E+12,284,0.53125,0.39941406,-0.24707031,62.71875,147.28125,91.8125
1.5379E+12,285,0.8251953,0.16113281,-0.32421875,98.78125,197.96875,159.0625
1.5379E+12,286,0.90234375,0.041992188,-0.22753906,44.75,220.21875,217.96875
1.5379E+12,287,1.1972656,0.16894531,-0.31152344,20.59375,223.34375,270.5
1.5379E+12,288,1.2841797,0.002929688,-0.34375,27.4375,171.90625,324.09375
1.5379E+12,289,1.7949219,0.13476562,-0.24609375,-31.34375,147.125,359.0625
1.5379E+12,290,1.9433594,0.23730469,-0.21289062,-85.5,121.0625,353.40625
1.5379E+12,291,1.8369141,0.15136719,-0.21191406,-168.96875,102,307.4375
1.5379E+12,292,1.5175781,0.36523438,-0.41210938,-193.21875,81.0625,235.65625
1.5379E+12,293,1.1757812,0.52246094,-0.56152344,-40.125,46.03125,168.15625
1.5379E+12,294,0.9716797,0.16015625,-0.33789062,101.71875,18.4375,111.09375
1.5379E+12,295,0.8652344,-0.25585938,-0.32128906,49.71875,8.6875,75.875
1.5379E+12,296,0.85253906,-0.35253906,-0.24902344,-122.53125,-4.4375,65.5
1.5379E+12,297,0.9892578,-0.040039062,-0.3046875,-179.53125,-22.375,37.125
1.5379E+12,298,1.0498047,-0.0703125,-0.31640625,-94.875,-36.78125,30.78125
1.5379E+12,299,0.98828125,0.03125,-0.15136719,-12.125,-39.03125,20.28125
1.5379E+12,300,1.0878906,-0.034179688,0.0546875,59.21875,-31.46875,-2.5625
1.5379E+12,301,1.1914062,-0.030273438,0.080078125,32.25,-17.875,-46.6875
1.5379E+12,302,0.99609375,0.38476562,-0.072265625,81.875,-16.65625,-105.71875
1.5379E+12,303,1.1337891,0.18457031,-0.0078125,164.625,-22.625,-162.84375
1.5379E+12,304,1.4150391,0.103515625,-0.053710938,132.90625,-29.28125,-218.5625
1.5379E+12,305,1.6191406,0.23242188,-0.036132812,132.53125,-43.875,-255.25
1.5379E+12,306,1.8066406,0.23535156,0.03125,153.71875,-64.5625,-275.4375
1.5379E+12,307,1.9609375,0.19042969,0.068359375,147.46875,-89.59375,-287.15625
1.5379E+12,308,1.8447266,0.13964844,0.12890625,106.03125,-97.8125,-291.875
1.5379E+12,309,1.5234375,0.10839844,0.013671875,61.59375,-89.28125,-280.5625
1.5379E+12,310,1.3007812,0.2421875,-0.013671875,23.71875,-84.53125,-262.625
1.5379E+12,311,1.2314453,0.27148438,0.025390625,10.03125,-74.5,-233.9375
1.5379E+12,312,1.1181641,0.24707031,-0.001953125,8.6875,-65.90625,-202.8125
1.5379E+12,313,0.99902344,0.20800781,-0.005859375,-5.53125,-47.96875,-171.875
1.5379E+12,314,0.8925781,0.24121094,-0.07324219,3.25,-22.5,-138.59375
1.5379E+12,315,0.7998047,0.18945312,-0.13867188,24.375,3,-87.46875
1.5379E+12,316,0.7792969,0.109375,-0.140625,6.25,30.46875,-19.46875
1.5379E+12,317,0.60546875,0.20507812,-0.11425781,-20.59375,67.78125,62.8125
1.5379E+12,318,0.5810547,0.20703125,-0.31054688,-10.96875,101.28125,132.5625
1.5379E+12,319,0.7373047,0.22167969,-0.3466797,-23.40625,100.3125,184.03125
1.5379E+12,320,0.9921875,0.2265625,-0.29101562,-53.0625,117.6875,241.09375
1.5379E+12,321,1.3076172,0.27734375,-0.33789062,-45.09375,114.15625,295.15625
1.5379E+12,322,1.4433594,0.28125,-0.32714844,-22.875,97.25,326.65625
1.5379E+12,323,1.5820312,0.44433594,-0.36132812,1.125,92.78125,330.8125
1.5379E+12,324,1.5878906,0.30273438,-0.42578125,45,78.4375,309.5
1.5379E+12,325,1.4082031,0.16503906,-0.328125,0.75,67.78125,255.4375
1.5379E+12,326,1.3681641,0.27441406,-0.3173828,-41.84375,49.6875,171.40625
1.5379E+12,327,1.2744141,0.19921875,-0.31445312,-63.9375,36.34375,93.875
1.5379E+12,328,1.1113281,0.22558594,-0.31347656,-79.3125,13.03125,34.6875
1.5379E+12,329,1.03125,0.3408203,-0.3076172,-103.5,8.9375,6.46875
1.5379E+12,330,1.0478516,0.421875,-0.27246094,-73.09375,7.65625,-8.40625
1.5379E+12,331,1.1669922,0.43359375,-0.30566406,-31.84375,8.625,-24.71875
1.5379E+12,332,1.2050781,0.4091797,-0.27148438,23.40625,-8.15625,-56.28125
1.5379E+12,333,0.81640625,0.29589844,-0.23144531,74.90625,-15.84375,-113.9375
1.5379E+12,334,1.1181641,0.2861328,-0.18457031,124,-30.625,-159.65625
1.5379E+12,335,1.3759766,0.21289062,-0.11230469,147.1875,-48.5,-187
1.5379E+12,336,1.6005859,0.12695312,-0.10546875,124.90625,-75.84375,-207.46875
1.5379E+12,337,1.4550781,0.04296875,-0.029296875,40.6875,-89.78125,-218.125
1.5379E+12,338,1.3105469,0.15820312,-0.072265625,-24.34375,-80.84375,-224.78125
1.5379E+12,339,1.1035156,0.23339844,-0.055664062,-30.4375,-79.21875,-223.9375
1.5379E+12,340,0.9863281,0.2841797,-0.06640625,-30.375,-65.15625,-215.09375
1.5379E+12,341,0.94921875,0.26660156,-0.057617188,-22.75,-59.5,-195.3125
1.5379E+12,342,0.9394531,0.36328125,-0.038085938,-22.9375,-44.28125,-166.125
1.5379E+12,343,0.9091797,0.32714844,-0.09765625,11.0625,-23.53125,-122.1875
1.5379E+12,344,0.8574219,0.31640625,-0.15039062,28.03125,-0.21875,-73.0625
1.5379E+12,345,0.93847656,0.29785156,-0.14160156,35.4375,23.6875,-11.59375
1.5379E+12,346,0.99609375,0.23828125,-0.14453125,24.1875,50.375,62.6875
1.5379E+12,347,0.86621094,0.24316406,-0.22167969,9.53125,63,126.90625
1.5379E+12,348,0.8310547,0.13964844,-0.2998047,0.03125,57.4375,172.90625
1.5379E+12,349,0.8623047,0.09667969,-0.2265625,-29.8125,55.9375,217.90625
1.5379E+12,350,1.203125,0.107421875,-0.29003906,-62.65625,68.0625,264.34375
1.5379E+12,351,1.5029297,0.22851562,-0.2841797,-95.4375,56.09375,290.59375
1.5379E+12,352,1.4824219,0.3330078,-0.35546875,-88.21875,41.09375,293.84375
1.5379E+12,353,1.4238281,0.29296875,-0.30859375,-66.5625,20.90625,270.40625
1.5379E+12,354,1.2285156,0.29003906,-0.234375,-78.84375,9.46875,208
1.5379E+12,355,1.1083984,0.24414062,-0.22753906,-70.59375,-5.84375,121.71875
1.5379E+12,356,1.0712891,0.0703125,-0.21386719,-74,-16.15625,58.21875
1.5379E+12,357,1.0742188,0.25390625,-0.20117188,-91.71875,-22.875,13.25
1.5379E+12,358,0.9951172,0.34570312,-0.17675781,-72.3125,-20.84375,-8.65625
1.5379E+12,359,0.9248047,0.36328125,-0.15136719,-39.96875,-8.90625,-4.09375
1.5379E+12,360,0.9140625,0.43066406,-0.17773438,7.15625,14.90625,8.84375
1.5379E+12,361,1.0556641,0.4248047,-0.28125,67.59375,32.96875,15.4375
1.5379E+12,362,1.1054688,0.32128906,-0.23632812,102.625,21.875,2.3125
1.5379E+12,363,0.89746094,0.3359375,-0.11621094,102.75,12.03125,-52.25
1.5379E+12,364,1.203125,0.31054688,-0.044921875,129.34375,0.9375,-130.375
1.5379E+12,365,1.3847656,0.17089844,-0.08203125,192.78125,-22.5,-190.78125
1.5379E+12,366,1.5136719,-0.076171875,-0.076171875,143.875,-55.78125,-230.21875
1.5379E+12,367,1.4814453,0.14453125,-0.15917969,37.3125,-57.78125,-249.375
1.5379E+12,368,1.3994141,0.15429688,-0.12988281,1.3125,-65.21875,-251.15625
1.5379E+12,369,1.1611328,0.24707031,-0.15234375,-20,-65.59375,-236.75
1.5379E+12,370,1.0166016,0.25195312,-0.091796875,-15.3125,-63.46875,-216.3125
1.5379E+12,371,0.9423828,0.265625,-0.091796875,-19.25,-53.28125,-194.21875
1.5379E+12,372,0.84277344,0.30078125,-0.09765625,1.1875,-43.25,-159.46875
1.5379E+12,373,0.83984375,0.3046875,-0.17578125,21.9375,-25.625,-116.8125
1.5379E+12,374,0.88183594,0.25976562,-0.14355469,30.65625,-5.78125,-66.78125
1.5379E+12,375,0.8691406,0.30078125,-0.1328125,50.1875,22.21875,-8.53125
1.5379E+12,376,1.0273438,0.21289062,-0.119140625,56.90625,48.28125,60
1.5379E+12,377,1.0830078,0.17480469,-0.13085938,24.25,69.28125,139.09375
1.5379E+12,378,0.8642578,0.14160156,-0.19921875,-3.9375,81.875,190
1.5379E+12,379,1.0009766,0.15039062,-0.2265625,-34.9375,84.375,214.78125
1.5379E+12,380,1.1689453,0.19921875,-0.2265625,-30.375,70.8125,236.9375
1.5379E+12,381,1.4394531,0.171875,-0.19824219,-47.65625,60.375,254.34375
1.5379E+12,382,1.4277344,0.20214844,-0.25683594,-81.03125,53.0625,254.59375
1.5379E+12,383,1.375,0.2685547,-0.39160156,-75,37.4375,241.46875
1.5379E+12,384,1.1992188,0.22558594,-0.34960938,-77.8125,22.40625,207.21875
1.5379E+12,385,1.0195312,0.27929688,-0.25097656,-95,4.09375,152.96875
1.5379E+12,386,1.0732422,0.16503906,-0.2578125,-77.5,-7.0625,96.625
1.5379E+12,387,1.1679688,0.16894531,-0.28808594,-112.78125,-18.59375,44.125
1.5379E+12,388,1.0810547,0.27148438,-0.2578125,-114.53125,-30.1875,6
1.5379E+12,389,0.9267578,0.31835938,-0.19433594,-89.8125,-22.125,-15.5
1.5379E+12,390,0.93652344,0.40625,-0.20800781,-35.625,-2.3125,-19.28125
1.5379E+12,391,0.97265625,0.42578125,-0.203125,37.5625,18.15625,-21.84375
1.5379E+12,392,1.0292969,0.41015625,-0.25683594,113.375,20.9375,-28.4375
1.5379E+12,393,0.90234375,0.2783203,-0.12988281,148.65625,11.125,-57.4375
1.5379E+12,394,1.1416016,0.27929688,-0.053710938,136.25,3.75,-100.03125
1.5379E+12,395,1.3720703,0.27929688,-0.009765625,155.34375,-19.09375,-146.65625
1.5379E+12,396,1.5341797,0.10644531,0.00390625,124.09375,-38.125,-194.15625
1.5379E+12,397,1.4375,0.15234375,-0.046875,76.0625,-43.875,-234
1.5379E+12,398,1.3662109,0.20507812,-0.0703125,21.6875,-38.75,-264.75
1.5379E+12,399,1.3095703,0.41308594,-0.08984375,1,-25.5,-282.40625
1.5379E+12,400,1.1787109,0.38378906,-0.052734375,19,-30.5,-274.53125
1.5379E+12,401,1.0078125,0.37890625,0.022460938,28.78125,-30.1875,-251.8125
1.5379E+12,402,0.87109375,0.36816406,-0.0234375,34.8125,-27.28125,-218.375
1.5379E+12,403,0.71875,0.32617188,-0.0859375,34.375,-23.53125,-178.78125
1.5379E+12,404,0.6591797,0.3408203,-0.09472656,7.78125,-8.28125,-133.71875
1.5379E+12,405,0.66796875,0.45410156,-0.12402344,14.0625,10.625,-71.90625
1.5379E+12,406,0.83203125,0.4169922,-0.16113281,35.4375,33.28125,1.90625
1.5379E+12,407,0.8769531,0.31054688,-0.12890625,17.34375,47.4375,83.9375
1.5379E+12,408,0.88964844,0.30859375,-0.18554688,-22.8125,75.9375,162.125
1.5379E+12,409,0.7949219,0.25,-0.37109375,-26.28125,82.90625,205.28125
1.5379E+12,410,0.91503906,0.20019531,-0.37304688,-21.15625,53.46875,242.4375
1.5379E+12,411,1.3007812,0.20214844,-0.30566406,-77.5625,54.21875,267.21875
1.5379E+12,412,1.5439453,0.30664062,-0.3642578,-123.875,27.96875,282.0625
1.5379E+12,413,1.4970703,0.48828125,-0.34960938,-88.34375,-0.03125,281.1875
1.5379E+12,414,1.4472656,0.43164062,-0.3154297,-16.46875,-10.59375,267.15625
1.5379E+12,415,1.1982422,0.36914062,-0.22167969,0.875,-14.375,217.15625
1.5379E+12,416,1.1865234,-0.059570312,-0.16601562,3.8125,-13.90625,166.6875
1.5379E+12,417,1.0546875,-0.060546875,-0.23046875,-65.96875,-9.125,159.0625
1.5379E+12,418,0.9453125,0.032226562,-0.2421875,-77.5,-19.8125,129.59375
1.5379E+12,419,1.0400391,-0.22070312,-0.29101562,-79.75,-23.46875,122.1875
1.5379E+12,420,1.2802734,-0.22070312,-0.40429688,-117.53125,-21.34375,101.4375
1.5379E+12,421,1.2597656,-0.13183594,-0.35546875,-103.5,-35.5625,92
1.5379E+12,422,1.1835938,0.004882813,-0.2890625,-81.34375,-28.0625,70.875
1.5379E+12,423,0.9375,0.328125,-0.34277344,5.9375,-20.96875,37.46875
1.5379E+12,424,0.83496094,0.22265625,-0.2626953,77.96875,-6.4375,-4.625
1.5379E+12,425,0.4716797,0.3310547,-0.17089844,109.34375,-13.59375,-47.53125
1.5379E+12,426,0.5527344,-0.18652344,0.21582031,95.46875,-16.40625,-101.9375
1.5379E+12,427,0.87402344,-0.00390625,0.27441406,97.5625,8.25,-149.90625
1.5379E+12,428,1.3613281,0.11621094,0.15722656,191.1875,14.125,-187.5
1.5379E+12,429,1.5957031,0.028320312,0.18066406,156.6875,10.21875,-238.40625
1.5379E+12,430,1.7792969,0.115234375,0.13183594,147.4375,15.65625,-281
1.5379E+12,431,1.8154297,0.28222656,0.06347656,146.6875,-4.8125,-313.90625
1.5379E+12,432,1.8261719,0.33984375,0.107421875,162.75,-11.09375,-340.28125
1.5379E+12,433,1.671875,0.35351562,0.107421875,149.1875,-20.5625,-338.5
1.5379E+12,434,1.3310547,0.4169922,0.061523438,134.96875,-29.15625,-308.71875
1.5379E+12,435,1.0419922,0.3798828,0.044921875,120.3125,-33.5,-260.75
1.5379E+12,436,0.88671875,0.39648438,0.01171875,102.9375,-39.65625,-215.5625
1.5379E+12,437,0.75390625,0.32226562,0.012695313,80.96875,-46.96875,-169.71875
1.5379E+12,438,0.7109375,0.30078125,0.016601562,34.03125,-41.0625,-127.25
1.5379E+12,439,0.7060547,0.36914062,-0.01953125,-14.4375,-27.09375,-84.84375
1.5379E+12,440,0.70214844,0.37695312,-0.038085938,-25.5,-2.78125,-31
1.5379E+12,441,0.8027344,0.3984375,-0.076171875,-11.5,30.40625,40.53125
1.5379E+12,442,1.0283203,0.38378906,-0.18847656,-10.90625,70.375,130.5625
1.5379E+12,443,0.8925781,0.22265625,-0.3876953,-30.75,87.78125,189.09375
1.5379E+12,444,0.9511719,0.19628906,-0.31347656,-48.25,75.53125,235.46875
1.5379E+12,445,1.3095703,0.24511719,-0.29101562,-31.40625,78.8125,280.09375
1.5379E+12,446,1.4746094,0.19433594,-0.34765625,-25.625,67.8125,301.9375
1.5379E+12,447,1.53125,0.265625,-0.41796875,-20.96875,58.96875,306.84375
1.5379E+12,448,1.484375,0.23339844,-0.4794922,7.34375,44.34375,289
1.5379E+12,449,1.3525391,0.19433594,-0.3623047,-24.5625,34.8125,243.59375
1.5379E+12,450,1.2080078,0.25585938,-0.31640625,-46,16.5625,175.25
1.5379E+12,451,1.1269531,0.02734375,-0.29492188,-23.84375,-0.09375,121.90625
1.5379E+12,452,1.1171875,0.18945312,-0.2783203,-49.125,-10.65625,92.15625
1.5379E+12,453,1.0488281,0.33984375,-0.24902344,-32.6875,-14.25,55.78125
1.5379E+12,454,0.984375,0.2783203,-0.22363281,-5.03125,-11.40625,19.46875
1.5379E+12,455,0.9375,0.296875,-0.19726562,7.46875,-5.34375,-2.5625
1.5379E+12,456,0.9375,0.33203125,-0.18164062,16.25,9.46875,-18.3125
1.5379E+12,457,1.0058594,0.4716797,-0.25195312,60.625,9.40625,-38.4375
1.5379E+12,458,1.015625,0.4453125,-0.15039062,137.15625,-6.6875,-79.65625
1.5379E+12,459,1.2841797,0.31152344,-0.02734375,186.90625,-28.90625,-134.53125
1.5379E+12,460,1.5029297,0.21777344,0.053710938,201.875,-56.5,-180.125
1.5379E+12,461,1.6503906,0.14160156,0.038085938,180.125,-81.40625,-214.09375
1.5379E+12,462,1.6552734,0.08300781,0.004882813,100.4375,-99.40625,-248.78125
1.5379E+12,463,1.5566406,0.22460938,0.021484375,38.15625,-90.125,-273.25
1.5379E+12,464,1.4697266,0.3251953,-0.013671875,18.46875,-80,-283.25
1.5379E+12,465,1.3203125,0.38476562,0.07421875,-2.84375,-75.125,-278.3125
1.5379E+12,466,1.1240234,0.359375,0.08496094,9.53125,-68.90625,-259.625
1.5379E+12,467,0.9169922,0.3408203,0.05859375,-9.1875,-59.84375,-239
1.5379E+12,468,0.84472656,0.47460938,0.008789063,-35.375,-41.59375,-216.78125
1.5379E+12,469,0.671875,0.4169922,0.010742188,-14.8125,-28.25,-179.6875
1.5379E+12,470,0.5576172,0.45214844,-0.006835938,7.78125,-2.59375,-129.6875
1.5379E+12,471,0.5449219,0.44433594,-0.10449219,21.25,27.71875,-63.84375
1.5379E+12,472,0.5527344,0.40820312,-0.15625,-13.46875,57.75,12.9375
1.5379E+12,473,0.51171875,0.4423828,-0.31152344,-46.25,110.0625,139.28125
1.5379E+12,474,0.5,0.4189453,-0.37890625,14,89.8125,178.40625
1.5379E+12,475,0.8574219,0.30664062,-0.37597656,-66.375,105.3125,216.3125
1.5379E+12,476,1.3291016,0.54589844,-0.47265625,-70.59375,71.25,278.3125
1.5379E+12,477,1.359375,0.5546875,-0.42773438,12.28125,31.5625,311.03125
1.5379E+12,478,1.3564453,0.47070312,-0.47558594,94.25,13.75,318.1875
1.5379E+12,479,1.3632812,0.115234375,-0.42382812,71.9375,29.875,300.53125
1.5379E+12,480,1.3271484,0.021484375,-0.39257812,-53.9375,28.71875,259.21875
1.5379E+12,481,1.296875,0.21777344,-0.30566406,-95.8125,1.0625,212.90625
1.5379E+12,482,1.1767578,0.14160156,-0.26367188,-67.46875,-19.8125,156.25
1.5379E+12,483,1.0458984,-0.22167969,-0.22753906,-105.15625,-29.34375,109.625
1.5379E+12,484,1.2626953,0.0078125,-0.171875,-253.34375,-38.375,79.46875
1.5379E+12,485,1.3662109,0.26464844,-0.42089844,-118.09375,-59.625,77.75
1.5379E+12,486,1.2275391,0.05078125,-0.41796875,-21.15625,-56.5625,86.5
1.5379E+12,487,1.3017578,0.203125,-0.2890625,77.71875,-39.15625,86.8125
1.5379E+12,488,1.0869141,-0.34375,0.047851562,104.09375,-21.46875,56.46875
1.5379E+12,489,0.5097656,0.024414062,-0.0546875,-5.53125,-3.28125,-1.46875
1.5379E+12,490,0.3486328,0.20605469,0.017578125,22.0625,18.5,-51.75
1.5379E+12,491,0.6855469,0.35839844,-0.032226562,122.03125,24.5,-98.9375
1.5379E+12,492,0.98339844,0.20605469,-0.072265625,158.65625,22.71875,-160.59375
1.5379E+12,493,1.5029297,0.1953125,-0.013671875,117.46875,20.46875,-215.625
1.5379E+12,494,1.7275391,0.29492188,0.11230469,135.8125,9.65625,-251.53125
1.5379E+12,495,1.7626953,0.2685547,0.11328125,175.3125,-4.875,-271.59375
1.5379E+12,496,1.8193359,0.2890625,0.14257812,198.5,-16.9375,-291.875
1.5379E+12,497,1.7167969,0.19335938,0.14746094,209.96875,-36.78125,-300.71875
1.5379E+12,498,1.5878906,0.21972656,0.109375,144,-45.8125,-291.375
1.5379E+12,499,1.3271484,0.3154297,0.12109375,98.21875,-53.03125,-270.9375
1.5379E+12,500,1.1337891,0.33789062,0.14257812,78.5,-53.3125,-241.9375
1.5379E+12,501,1.0302734,0.32226562,0.10449219,62.40625,-53.21875,-216.375
1.5379E+12,502,0.9042969,0.27441406,0.056640625,20.96875,-53.4375,-191.59375
1.5379E+12,503,0.7441406,0.27441406,0.044921875,-10.40625,-33.5,-156.5
1.5379E+12,504,0.6816406,0.37890625,-0.06640625,-24.34375,-3.78125,-110.59375
1.5379E+12,505,0.7441406,0.42382812,-0.18261719,-8.53125,30.09375,-43.15625
1.5379E+12,506,0.8378906,0.4609375,-0.22167969,-0.71875,71.6875,23.4375
1.5379E+12,507,0.6220703,0.3720703,-0.34277344,-23.84375,113.0625,81.1875
1.5379E+12,508,0.7392578,0.3984375,-0.41210938,-28.25,114.75,140.15625
1.5379E+12,509,0.7392578,0.39160156,-0.3671875,-31.65625,104.8125,198.0625
1.5379E+12,510,1.1025391,0.3408203,-0.32617188,-29.8125,88.9375,251.46875
1.5379E+12,511,1.3242188,0.22167969,-0.26757812,-29.75,66.0625,303.59375
1.5379E+12,512,1.546875,0.20019531,-0.29589844,-65.90625,61.125,334.125
1.5379E+12,513,1.7080078,0.31445312,-0.40429688,-81.75,55.8125,328.625
1.5379E+12,514,1.4648438,0.41015625,-0.38183594,-37.03125,26.6875,287.53125
1.5379E+12,515,1.3037109,0.32128906,-0.27441406,49.46875,11.5625,220.09375
1.5379E+12,516,1.1699219,0.13671875,-0.26953125,82.125,11.84375,149.1875
1.5379E+12,517,1.2207031,0.12890625,-0.2783203,42.75,3.8125,86.6875
1.5379E+12,518,1.0595703,0.11035156,-0.2607422,-29.9375,-5.0625,48.15625
1.5379E+12,519,1.0976562,0.24511719,-0.18261719,-91.09375,0.6875,21.1875
1.5379E+12,520,0.99121094,0.48828125,-0.28808594,-75.125,3.3125,1.84375
1.5379E+12,521,0.7451172,0.57910156,-0.34277344,23.28125,-5.96875,-20.25
1.5379E+12,522,0.7265625,0.546875,-0.18261719,134,-21.03125,-62.5
1.5379E+12,523,1.0830078,0.2763672,-0.061523438,192.78125,-49.125,-117.71875
1.5379E+12,524,1.3554688,0.09667969,-0.033203125,143.03125,-82.75,-164.375
1.5379E+12,525,1.6787109,0.099609375,0.002929688,76.5,-96.65625,-203
1.5379E+12,526,1.7548828,0.06738281,-0.05859375,48.125,-104.78125,-231.75
1.5379E+12,527,1.5595703,0.041015625,-0.080078125,-14.3125,-109.125,-251.75
1.5379E+12,528,1.3974609,0.19238281,-0.08691406,-70,-88.78125,-268.96875
1.5379E+12,529,1.3330078,0.3251953,-0.08203125,-46.59375,-66.09375,-268.5
1.5379E+12,530,1.21875,0.23144531,-0.041992188,8.5625,-59.5625,-249.1875
1.5379E+12,531,1.2216797,0.34179688,-0.041015625,24.75,-44.0625,-217.78125
1.5379E+12,532,1.0117188,0.21679688,-0.08300781,59.90625,-38.875,-175.03125
1.5379E+12,533,0.8564453,0.16113281,-0.047851562,38.0625,-11.40625,-127.4375
1.5379E+12,534,0.9824219,0.15429688,0.032226562,27.1875,25.71875,-62
1.5379E+12,535,0.77734375,0.19140625,0.048828125,-9,57.34375,10.125
1.5379E+12,536,0.7138672,0.09277344,-0.26953125,-18.46875,88.34375,71.34375
1.5379E+12,537,0.6748047,0.09277344,-0.41015625,-8.71875,62.8125,124.625
1.5379E+12,538,0.7626953,0.021484375,-0.35839844,-51.5625,67.46875,198.90625
1.5379E+12,539,1.1025391,0.18066406,-0.46191406,-59.5625,80.59375,279
1.5379E+12,540,1.4560547,0.16113281,-0.5654297,-40.9375,81.5625,342.03125
1.5379E+12,541,1.7304688,0.1640625,-0.5488281,-45.15625,59.53125,374.28125
1.5379E+12,542,1.7509766,0.3388672,-0.2783203,-55.65625,27.46875,352.84375
1.5379E+12,543,1.4072266,0.40625,-0.17578125,-68.15625,11.75,266.4375
1.5379E+12,544,1.1298828,0.20410156,-0.16308594,-50.8125,-2.96875,141.65625
1.5379E+12,545,1.2294922,-0.15039062,-0.21679688,-146.03125,-7.125,76.84375
1.5379E+12,546,1.2148438,0.3466797,-0.20507812,-226,-23.84375,39.6875
1.5379E+12,547,1.0175781,0.5078125,-0.11035156,-191.625,-31,10.6875
1.5379E+12,548,0.9042969,0.56152344,-0.08984375,-87.75,-2.96875,9.90625
1.5379E+12,549,0.8564453,0.5859375,-0.18164062,67.78125,16.375,7.03125
1.5379E+12,550,1.0869141,0.40820312,-0.23242188,163.21875,39.09375,-6.28125
1.5379E+12,551,0.9355469,0.29589844,-0.20117188,200.40625,22.84375,-43.625
1.5379E+12,552,0.97265625,0.18457031,-0.10546875,184.78125,18.03125,-103.3125
1.5379E+12,553,1.2470703,0.16796875,-0.10058594,155.25,-10.34375,-156.375
1.5379E+12,554,1.3837891,0.10546875,-0.107421875,116.1875,-28.25,-194.5625
1.5379E+12,555,1.4970703,0.16015625,-0.12011719,82.96875,-36.3125,-221.84375
1.5379E+12,556,1.4091797,0.13476562,-0.13378906,64.84375,-55.46875,-243.78125
1.5379E+12,557,0.8095703,0.14550781,-0.11035156,13.03125,7.78125,-0.96875
1.5379E+12,558,0.8417969,0.11035156,-0.09667969,1,35.46875,61.46875
1.5379E+12,559,0.8095703,0.06933594,-0.18847656,-9.375,48.90625,108.65625
1.5379E+12,560,0.94433594,0.09375,-0.19042969,-28,51.40625,147.03125
1.5379E+12,561,1.0244141,0.14746094,-0.24902344,-28.96875,55.0625,186.46875
1.5379E+12,562,1.0986328,0.10644531,-0.29003906,-39.46875,48.53125,218.09375
1.5379E+12,563,1.1962891,0.15039062,-0.3232422,-64.75,40.1875,244.03125
1.5379E+12,564,1.2841797,0.18359375,-0.28710938,-83.78125,21.75,259.34375
1.5379E+12,565,1.3466797,0.24023438,-0.21386719,-109.71875,7.78125,245.78125
1.5379E+12,566,1.25,0.31054688,-0.13085938,-98.84375,-6.40625,195.875
1.5379E+12,567,1.3085938,0.24316406,-0.14550781,-78.09375,-6.03125,125.8125
1.5379E+12,568,0.8701172,0.30371094,-0.18554688,14.375,19.90625,7.03125
1.5379E+12,569,0.7675781,0.36621094,-0.23339844,11.375,22.90625,-18.90625
1.5379E+12,570,0.77441406,0.42089844,-0.17578125,53.71875,10.34375,-56.4375
1.5379E+12,571,1.0097656,0.37695312,-0.14550781,103.90625,-3.21875,-106.8125
1.5379E+12,572,1.2851562,0.3720703,-0.07421875,119.53125,-15.90625,-156.0625
1.5379E+12,573,1.7558594,0.34179688,0.046875,83.9375,-16.46875,-215.625
1.5379E+12,574,1.5732422,0.3642578,-0.012695313,87.5625,-31.96875,-252.3125
1.5379E+12,575,1.4316406,0.39160156,-0.008789063,48.71875,-31.28125,-272.09375
1.5379E+12,576,1.2695312,0.46972656,0,26.21875,-31.53125,-279.15625
1.5379E+12,577,1.1074219,0.47851562,0.046875,21.875,-27.03125,-276.0625
1.5379E+12,578,0.9902344,0.49902344,0.020507812,45.90625,-26.65625,-260.8125
1.5379E+12,579,0.81152344,0.45507812,0.008789063,64.59375,-33.25,-223.75
1.5379E+12,580,0.8125,0.47265625,-0.01171875,45.5,-26.96875,-184.8125
1.5379E+12,581,0.7988281,0.42285156,-0.043945312,22.59375,-13.96875,-134.03125
1.5379E+12,582,0.8251953,0.4189453,-0.0625,28.09375,7.15625,-70.84375
1.5379E+12,583,0.88671875,0.32421875,-0.13574219,20.34375,29.0625,4.40625
1.5379E+12,584,0.7167969,0.33007812,-0.13671875,1.84375,47.4375,95.53125
1.5379E+12,585,0.6816406,0.2265625,-0.32617188,-2.96875,67.71875,175.34375
1.5379E+12,586,0.6777344,0.171875,-0.3935547,-0.53125,51.90625,230.40625
1.5379E+12,587,1.0234375,0.09277344,-0.30371094,-15.25,54.9375,289.625
1.5379E+12,588,1.5107422,0.06542969,-0.30664062,-45.5625,62.46875,337.78125
1.5379E+12,589,1.7695312,0.20703125,-0.39941406,-96.15625,60.5,355.90625
1.5379E+12,590,1.8027344,0.30566406,-0.4404297,-68.53125,31.8125,334.78125
1.5379E+12,591,1.4609375,0.1875,-0.2529297,-66.5625,8.875,271.4375
1.5379E+12,592,1.1767578,-0.034179688,-0.21386719,-54.78125,-1.375,218.5625
1.5379E+12,593,1.1728516,0.1171875,-0.22070312,-40.125,-18.90625,170.96875
1.5379E+12,594,1.0136719,0.025390625,-0.22558594,-59.96875,-20.84375,117.9375
1.5379E+12,595,1.0917969,0.09082031,-0.29003906,-42.15625,-26.96875,75.875
1.5379E+12,596,1.0585938,-0.06738281,-0.36914062,-53.25,-31.125,68.5625
1.5379E+12,597,1.0097656,0.05078125,-0.28222656,-85.375,-26.96875,67.625
1.5379E+12,598,0.9111328,0.20214844,-0.24609375,-66.5625,-14.03125,50.65625
1.5379E+12,599,0.92578125,0.171875,-0.24316406,-0.84375,-1.15625,23.3125
1.5379E+12,600,0.9140625,0.2626953,-0.13867188,29.8125,8.25,-9.8125
1.5379E+12,601,0.67871094,0.07324219,-0.002929688,77.90625,8.5625,-66.84375
1.5379E+12,602,0.8203125,0.059570312,0.061523438,94.6875,20.28125,-114.3125
1.5379E+12,603,1.0136719,0.24511719,-0.013671875,150.21875,21.5,-154.53125
1.5379E+12,604,1.5498047,0.119140625,-0.006835938,145.28125,12.78125,-200.4375
1.5379E+12,605,1.5761719,0.12792969,0.05078125,116.59375,1.90625,-244.125
1.5379E+12,606,1.6875,0.24511719,0.05078125,131.6875,-0.03125,-282.78125
1.5379E+12,607,1.6308594,0.21191406,-0.005859375,141.3125,-9.8125,-306.9375
1.5379E+12,608,1.5498047,0.27929688,0.004882813,125.09375,-22.4375,-314.8125
1.5379E+12,609,1.3173828,0.37890625,-0.09082031,92.0625,-29.53125,-310.125
1.5379E+12,610,1.1103516,0.5654297,-0.18847656,65.21875,-36.125,-292.53125
1.5379E+12,611,0.9238281,0.7216797,-0.20019531,28.28125,-44.90625,-274.03125
1.5379E+12,612,0.63671875,0.69433594,-0.056640625,47.1875,-43.9375,-224.53125
1.5379E+12,613,0.4580078,0.5566406,-0.076171875,36.34375,-24.03125,-148.96875
1.5379E+12,614,0.5595703,0.53222656,-0.08984375,6.625,15.46875,-49.6875
1.5379E+12,615,0.5957031,0.3857422,-9.77E-04,34.25,57.21875,29.25
1.5379E+12,616,0.8300781,0.32128906,-0.061523438,47.15625,89.6875,97.71875
1.5379E+12,617,1.0810547,0.2626953,-0.080078125,51.40625,93.53125,165.78125
1.5379E+12,618,0.94628906,0.045898438,-0.18261719,-28.78125,94.4375,190.5
1.5379E+12,619,0.6923828,-0.044921875,-0.2763672,-42.15625,51.46875,236.6875
1.5379E+12,620,0.90722656,0.14941406,-0.32421875,-42.9375,64.71875,330.28125
1.5379E+12,621,1.7724609,0.051757812,-0.23925781,-64,65.1875,387.625
1.5379E+12,622,1.9462891,0.21679688,-0.4033203,-124.78125,64.59375,398.125
1.5379E+12,623,2.0029297,0.4033203,-0.3515625,-81.34375,23.46875,358.09375
1.5379E+12,624,1.5898438,0.7089844,-0.24414062,1.3125,3.4375,252.4375
1.5379E+12,625,1.1738281,0.047851562,-0.1171875,156.21875,17,157.34375
1.5379E+12,626,1.0810547,-0.032226562,-0.21386719,148.28125,11.3125,115.0625
1.5379E+12,627,0.9003906,-0.13964844,-0.3486328,13.9375,11.0625,94.0625
1.5379E+12,628,0.85839844,-0.048828125,-0.30566406,-163.5,8,97.28125
1.5379E+12,629,1.1542969,0.11425781,-0.1796875,-180.875,-16.40625,61.28125
1.5379E+12,630,1.0996094,0.1328125,-0.11035156,-143.90625,-28.3125,27.90625
1.5379E+12,631,0.9951172,0.46875,-0.14746094,-46.4375,-12.9375,-9.8125
1.5379E+12,632,1.0283203,0.5136719,-0.2607422,91.09375,-4.375,-54.4375
1.5379E+12,633,1.0078125,0.33496094,-0.21289062,136.75,-2.5,-107.78125
1.5379E+12,634,1.2636719,0.39453125,-0.07910156,183.375,-12.6875,-167.96875
1.5379E+12,635,1.5908203,0.3232422,-0.012695313,236.96875,-45.9375,-226.6875
1.5379E+12,636,1.8974609,0.07421875,0.047851562,232.09375,-86.34375,-268.90625
1.5379E+12,637,2.0029297,0.01171875,0.049804688,167.625,-116.4375,-289.125
1.5379E+12,638,1.9873047,0.0625,0.056640625,112.5625,-127.53125,-293.625
1.5379E+12,639,1.8183594,0.08886719,0.041992188,69.84375,-122.90625,-286.375
1.5379E+12,640,1.5693359,0.12011719,0.021484375,9.90625,-110.09375,-276.78125
1.5379E+12,641,1.3945312,0.21777344,0.076171875,-23.96875,-90.125,-261.34375
1.5379E+12,642,1.2255859,0.17871094,0.09082031,1.5625,-77.0625,-238.9375
1.5379E+12,643,1.2998047,0.20898438,0.099609375,-3.40625,-52.15625,-220.09375
1.5379E+12,644,1.1835938,0.11035156,-0.013671875,19,-28.375,-198.84375
1.5379E+12,645,1.0126953,0.14941406,-0.13085938,17.125,0.9375,-158.25
1.5379E+12,646,0.7626953,0.080078125,-0.25,17.1875,24.5,-90.75
1.5379E+12,647,0.50390625,0.08203125,-0.12792969,-25.6875,58.78125,-11.09375
1.5379E+12,648,0.39160156,0.14550781,-0.11328125,-17.96875,102.3125,74.59375
1.5379E+12,649,0.5029297,0.12890625,-0.10058594,1.5625,141.125,155.15625
1.5379E+12,650,0.79785156,0.109375,-0.3798828,-2.59375,174.03125,232.3125
1.5379E+12,651,1.1513672,-0.009765625,-0.5107422,-40.625,141.6875,302.1875
1.5379E+12,652,1.6572266,-0.01953125,-0.45214844,-118.75,108.65625,371.96875
1.5379E+12,653,2.0029297,0.08300781,-0.31152344,-185.59375,76.1875,405.40625
1.5379E+12,654,2.0029297,0.45410156,-0.5107422,-196.8125,50.90625,376.53125
1.5379E+12,655,1.5976562,0.46484375,-0.3544922,-147.875,1,289.375
1.5379E+12,656,1.4677734,0.37890625,-0.27441406,-79.3125,-12.125,173.34375
1.5379E+12,657,1.5332031,-0.1015625,-0.328125,-8.78125,-25,126.90625
1.5379E+12,658,1.4267578,-0.08496094,-0.6220703,-92.625,-46.4375,158.09375
1.5379E+12,659,1.2460938,0.16796875,-0.4951172,-175.03125,-44.1875,152.28125
1.5379E+12,660,1.0966797,0.390625,-0.30371094,-131.03125,-58.40625,75.3125
1.5379E+12,661,0.9169922,0.5966797,-0.17089844,22.0625,-63.875,16
1.5379E+12,662,0.68652344,0.7158203,0.14160156,164.6875,-67.65625,-30.21875
1.5379E+12,663,0.734375,0.31152344,0.43847656,215.125,-42.71875,-83.125
1.5379E+12,664,0.8720703,0.23632812,0.3359375,158.46875,-23.25,-132.125
1.5379E+12,665,1.1933594,0.18945312,0.21484375,157.125,-16.53125,-181.9375
1.5379E+12,666,1.7958984,0.14160156,0.020507812,109.46875,-23.65625,-285.03125
1.5379E+12,667,1.7978516,0.1953125,0.056640625,72.84375,-18.125,-310.0625
1.5379E+12,668,1.8027344,0.3642578,0.080078125,88.9375,-11.03125,-322.625
1.5379E+12,669,1.6513672,0.18847656,0.036132812,110.4375,-23.3125,-322.25
1.5379E+12,670,1.40625,0.2578125,-0.047851562,67.71875,-24.53125,-299.3125
1.5379E+12,671,1.2138672,0.44921875,-0.08105469,54.90625,-31.65625,-281
1.5379E+12,672,1.0097656,0.41992188,-0.15722656,57.34375,-44.34375,-258.84375
1.5379E+12,673,0.8466797,0.46972656,-0.055664062,14,-40.5,-236.6875
1.5379E+12,674,0.6357422,0.35253906,0.029296875,7.46875,27.3125,-10.75
1.5379E+12,675,0.5527344,0.044921875,0.013671875,-25,74.90625,76.3125
1.5379E+12,676,0.80078125,0.19238281,-0.068359375,-96.46875,116.59375,149.40625
1.5379E+12,677,1.1386719,0.4169922,-0.21972656,5.28125,90.59375,229.5
1.5379E+12,678,1.140625,0.13671875,-0.28222656,61.4375,74.0625,263.4375
1.5379E+12,679,1.2597656,0.15722656,-0.41503906,32.6875,59.09375,267.78125
1.5379E+12,680,1.3779297,0.13867188,-0.33691406,11.4375,46.9375,276.1875
1.5379E+12,681,1.5341797,0.2421875,-0.36523438,11.875,43.78125,282.0625
1.5379E+12,682,1.4199219,0.22363281,-0.34570312,32.96875,36.8125,260.4375
1.5379E+12,683,1.5205078,0.19628906,-0.27148438,-17.875,39.4375,225.59375
1.5379E+12,684,1.5058594,0.18554688,-0.3125,-20.3125,30.46875,204.90625
1.5379E+12,685,1.2285156,0.27148438,-0.3486328,-11.875,20.90625,172
1.5379E+12,686,1.0292969,0.59472656,-0.39257812,114.71875,9,112.5625
1.5379E+12,687,0.77246094,0.27441406,-0.16308594,291.96875,2.21875,42.0625
1.5379E+12,688,0.7783203,-0.65625,-0.13085938,156.75,4.46875,49.5625
1.5379E+12,689,0.87109375,-0.41015625,-0.19140625,-40.9375,6.0625,74.96875
1.5379E+12,690,0.96777344,-0.20117188,-0.20898438,-33.78125,-12.875,72.28125
1.5379E+12,691,1.1523438,-0.2421875,-0.22949219,-22.5,-19.15625,57.875
1.5379E+12,692,1.0751953,-0.09863281,-0.19140625,-12.5625,-28.4375,27.53125
1.5379E+12,693,1.2255859,0.36035156,-0.21972656,-0.03125,-26.28125,-19.59375
1.5379E+12,694,1.0917969,0.43066406,-0.10546875,81.5,-55.40625,-83.25
1.5379E+12,695,1.0322266,0.31933594,0.017578125,122.59375,-69,-150.09375
1.5379E+12,696,1.3583984,0.28320312,0.078125,176.46875,-99.40625,-199.21875
1.5379E+12,697,2.0029297,-0.041015625,0.13085938,99.4375,-157.5,-260.5625
1.5379E+12,698,2.0029297,-0.043945312,0.03125,45.8125,-159.15625,-280.4375
1.5379E+12,699,1.9248047,0.09863281,-0.07421875,-21.875,-150.9375,-293.5
1.5379E+12,700,1.6806641,0.16308594,-0.08691406,-57.90625,-131.5,-301.3125
1.5379E+12,701,1.4511719,0.19628906,0.040039062,-41.40625,-114.125,-285.03125
1.5379E+12,702,1.3701172,0.20410156,0.030273438,-7.71875,-92.5,-254.03125
1.5379E+12,703,1.3564453,0.11621094,-0.033203125,-7.53125,-65.15625,-217.28125
1.5379E+12,704,1.1591797,0.111328125,-0.06933594,9.78125,-41.0625,-177.375
1.5379E+12,705,0.5517578,-0.09863281,-0.08300781,-12.96875,66.125,51.34375
1.5379E+12,706,0.7294922,9.77E-04,-0.17089844,-32.03125,93.03125,126.40625
1.5379E+12,707,0.87890625,0.036132812,-0.15527344,-24.5,93.15625,201.40625
1.5379E+12,708,1.1201172,0.041015625,-0.26464844,-9.25,107.875,265.625
1.5379E+12,709,1.3222656,0.041992188,-0.30566406,-26.15625,99.0625,318.5
1.5379E+12,710,1.6337891,-0.046875,-0.2939453,-92.1875,104.15625,374.75
1.5379E+12,711,2.0029297,0.044921875,-0.3408203,-178.03125,88.28125,414.0625
1.5379E+12,712,2.0029297,0.453125,-0.23730469,-209.9375,30.28125,396.1875
1.5379E+12,713,1.9941406,0.6484375,-0.203125,-183.15625,-5.84375,302.1875
1.5379E+12,714,1.5566406,0.4892578,-0.26367188,-38.78125,-23.96875,171.6875
1.5379E+12,715,1.2871094,0.27246094,-0.15136719,-7.71875,-20.90625,95.28125
1.5379E+12,716,1.0751953,0.58496094,-0.09765625,-16.6875,-2.5,55.0625
1.5379E+12,717,0.8769531,0.41992188,-0.17578125,37.625,6.5,42.0625
1.5379E+12,718,0.7363281,0.41796875,-0.2734375,23.28125,15.21875,19.40625
1.5379E+12,719,0.6777344,0.5361328,-0.25976562,7.34375,12.78125,-27.28125
1.5379E+12,720,0.79003906,0.5449219,-0.15039062,52.09375,4.40625,-111.8125
1.5379E+12,721,1.1992188,0.4580078,-0.13867188,148.875,-12.3125,-180.15625
1.5379E+12,722,1.5732422,0.24316406,-0.087890625,189.28125,-38.1875,-223.625
1.5379E+12,723,1.8583984,0.17480469,-0.0234375,165.5,-59.25,-258
1.5379E+12,724,1.8271484,0.05859375,-0.032226562,135.71875,-79.5,-277.53125
1.5379E+12,725,1.6757812,0.11035156,-0.015625,82.34375,-88.46875,-285.53125
1.5379E+12,726,1.5917969,0.13085938,-0.0546875,49.40625,-86.40625,-281.625
1.5379E+12,727,1.4501953,0.14160156,-0.11816406,23.21875,-83.53125,-259.8125
1.5379E+12,728,1.4033203,0.12988281,-0.05859375,8.5,-80.625,-234.8125
1.5379E+12,729,1.4414062,0.06640625,0.025390625,-12.3125,-72.375,-200.3125
1.5379E+12,730,1.2822266,0.041015625,0.012695313,-13.28125,-50.46875,-155.28125
1.5379E+12,731,1.0449219,0.057617188,-0.05859375,0.21875,-23.1875,-84.40625
1.5379E+12,732,0.77246094,0.025390625,-0.060546875,1.0625,11.4375,-5.71875
1.5379E+12,733,0.6142578,0.040039062,-0.123046875,-13.09375,47.625,61.65625
1.5379E+12,734,0.8515625,0.045898438,-0.20019531,-31.53125,68.5625,188.40625
1.5379E+12,735,1.0449219,0.11328125,-0.2861328,-50.28125,70.15625,248.65625
1.5379E+12,736,1.2246094,0.12890625,-0.32421875,-63.34375,65.3125,301.8125
1.5379E+12,737,1.4960938,0.06542969,-0.35058594,-91.71875,51.40625,343.5
1.5379E+12,738,1.8232422,0.08203125,-0.2685547,-154.09375,30.03125,354.1875
1.5379E+12,739,1.8125,0.31933594,-0.123046875,-205.46875,-4.625,317.21875
1.5379E+12,740,1.6123047,0.48046875,-0.16503906,-162.03125,-23.375,237.6875
1.5379E+12,741,1.4716797,0.3720703,-0.22363281,-73.40625,-33.25,151.375
1.5379E+12,742,1.2578125,0.3330078,-0.18554688,-40.03125,-25,87.53125
1.5379E+12,743,0.99902344,0.38476562,-0.13476562,-46,-14.3125,46.34375
1.5379E+12,744,0.890625,0.5048828,-0.13476562,-33.84375,8.4375,20.21875
1.5379E+12,745,0.77246094,0.55566406,-0.18554688,44.03125,19.84375,-10.6875
1.5379E+12,746,0.7294922,0.41601562,-0.20996094,109.6875,20.71875,-50.15625
1.5379E+12,747,0.84375,0.3486328,-0.125,129.125,14.59375,-104.71875
1.5379E+12,748,1.1220703,0.33691406,-0.11035156,157,-1.25,-156.96875
1.5379E+12,749,1.3408203,0.24316406,-0.07421875,192.96875,-22.25,-194.21875
1.5379E+12,750,1.7001953,0.18847656,-0.07324219,187.875,-43.75,-228.03125
1.5379E+12,751,1.6796875,0.041015625,-0.028320312,132.90625,-67.625,-250.3125
1.5379E+12,752,1.5849609,0.16113281,-0.026367188,74.25,-69.1875,-262.375
1.5379E+12,753,1.4765625,0.1484375,-0.048828125,61.3125,-68.53125,-258.65625
1.5379E+12,754,1.421875,0.12207031,-0.11035156,48.4375,-72.625,-240.71875
1.5379E+12,755,1.4355469,-0.013671875,-0.07324219,-27.03125,-78.59375,-216.125
1.5379E+12,756,1.34375,0.25585938,0.002929688,-123.5625,-56.8125,-199.65625
1.5379E+12,757,1.1796875,0.29003906,0.07910156,-48.125,-41.71875,-158.5
1.5379E+12,758,0.8574219,0.22167969,0.002929688,32.3125,-19.15625,-90.5
1.5379E+12,759,0.6328125,-0.032226562,-0.08496094,65.21875,-0.71875,-9.28125
1.5379E+12,760,0.44921875,-0.125,-0.1015625,-26.78125,29.5,57.375
1.5379E+12,761,0.71875,0.11425781,-0.13476562,-53.4375,43.59375,125.875
1.5379E+12,762,0.86035156,0.14453125,-0.16601562,-15.34375,50.0625,198.3125
1.5379E+12,763,1.0966797,0.123046875,-0.26171875,-6.5625,63.5625,252.625
1.5379E+12,764,1.2910156,0.12988281,-0.296875,-33.1875,59.53125,292.96875
1.5379E+12,765,1.46875,-0.23925781,-0.25195312,-59.78125,60.5625,352.71875
1.5379E+12,766,2.0029297,-0.10546875,-0.234375,-148.15625,56.34375,398.5
1.5379E+12,767,1.5048828,0.8671875,-0.34472656,-156.46875,3.25,300.25
1.5379E+12,768,1.1337891,-0.19628906,-0.24414062,25.71875,-1.6875,158.03125
1.5379E+12,769,1.4335938,-0.25390625,-0.4482422,2.78125,-15.125,122.125
1.5379E+12,770,1.2675781,-0.32421875,-0.58984375,-53.9375,-32.8125,92.40625
1.5379E+12,771,1.2226562,-0.2265625,-0.30859375,-200.1875,-36.3125,104.375
1.5379E+12,772,1.1123047,0.38476562,-0.21289062,-131.09375,-50.65625,81
1.5379E+12,773,0.8847656,0.51464844,-0.13867188,46.78125,-52.34375,55.3125
1.5379E+12,774,0.8066406,0.31152344,-0.10839844,133.375,-37.15625,3.90625
1.5379E+12,775,1.5126953,0.13476562,0.010742188,94.6875,-39.78125,-251.28125
1.5379E+12,776,1.6591797,0.11230469,-0.001953125,59.59375,-38.5625,-273.8125
1.5379E+12,777,1.6435547,0.19628906,-0.052734375,22.90625,-35.375,-288.25
1.5379E+12,778,1.6054688,0.2783203,-0.08496094,19.125,-19.40625,-291.6875
1.5379E+12,779,1.5185547,0.34472656,-0.15039062,60.21875,-23.125,-284.1875
1.5379E+12,780,1.4140625,0.27734375,-0.09863281,66.71875,-26.65625,-265.125
1.5379E+12,781,1.2685547,0.32128906,-0.17089844,67.84375,-23.1875,-243.46875
1.5379E+12,782,1.0830078,0.2109375,-0.18554688,79,-39.15625,-212.65625
1.5379E+12,783,0.9511719,0.23144531,-0.15820312,55.9375,-35.75,-165.21875
1.5379E+12,784,0.94921875,0.19921875,-0.17871094,38.40625,-20.75,-101.5
1.5379E+12,785,0.9746094,0.12695312,-0.15332031,-2.34375,-9.625,-31.71875
1.5379E+12,786,0.8408203,0.15917969,-0.06738281,-40.1875,13.8125,35.09375
1.5379E+12,787,0.6738281,0.14160156,-0.15722656,-26.78125,45.71875,93.5625
1.5379E+12,788,0.8017578,0.14160156,-0.19238281,-32.75,72.09375,143.9375
1.5379E+12,789,0.9199219,0.16308594,-0.34179688,-18.71875,77.46875,201.0625
1.5379E+12,790,1.1337891,0.14941406,-0.3310547,-78.96875,71.125,232.84375
1.5379E+12,791,1.3203125,0.3642578,-0.3017578,-185.28125,59.09375,235.46875
1.5379E+12,792,1.3056641,0.7089844,-0.30371094,-116.90625,14.96875,229.0625
1.5379E+12,793,1.2470703,0.33203125,-0.23828125,-43.625,-10.59375,266.3125
1.5379E+12,794,1.4599609,0.56640625,-0.22167969,-87.6875,-3.53125,276.625
1.5379E+12,795,1.2636719,0.5361328,-0.26171875,-38.25,-20.625,255.125
1.5379E+12,796,1.171875,0.23046875,-0.27734375,4.84375,-15.25,216.75
1.5379E+12,797,1.0791016,-0.09277344,-0.33789062,-36.34375,-7.25,166.9375
1.5379E+12,798,1.1386719,-0.1328125,-0.43359375,-61.375,-22.3125,136.71875
1.5379E+12,799,1.3095703,-0.3076172,-0.3701172,-113.1875,-27.75,118.21875
1.5379E+12,800,1.4169922,-0.15527344,-0.2919922,-156.15625,-35.5625,104.375
1.5379E+12,801,1.2597656,0.13964844,-0.32421875,-107.59375,-35.875,87.09375
1.5379E+12,802,0.8964844,0.40234375,-0.390625,29,-35.625,50.65625
1.5379E+12,803,0.75097656,0.27734375,-0.27539062,109.28125,-22.125,6.21875
1.5379E+12,804,0.48339844,0.53515625,-0.15429688,166.03125,-27.3125,-64.625
1.5379E+12,805,0.8613281,0.453125,0.11425781,268.9375,-33.5,-148.375
1.5379E+12,806,1.3789062,0.10644531,0.14550781,324.4375,-62.78125,-210.875
1.5379E+12,807,1.6611328,-0.06542969,0.08105469,259,-103.1875,-250.53125
1.5379E+12,808,1.8574219,0.033203125,-0.08203125,135.9375,-123.875,-267.34375
1.5379E+12,809,1.8779297,0.14160156,-0.06933594,43.71875,-129.875,-276.25
1.5379E+12,810,1.8251953,0.22753906,0.044921875,-20.53125,-110.75,-288.875
1.5379E+12,811,1.7783203,0.2705078,0.09082031,-2.25,-96.46875,-294.375
1.5379E+12,812,1.5869141,0.3046875,0.12988281,19.0625,-85.5,-288.4375
1.5379E+12,813,1.4287109,0.36621094,0.076171875,24.9375,-73.71875,-275.5
1.5379E+12,814,1.1679688,0.29101562,0.005859375,17.28125,-61.625,-255.90625
1.5379E+12,815,0.9316406,0.27441406,-0.01953125,2.46875,-52.53125,-236.6875
1.5379E+12,816,0.7207031,0.29296875,-0.072265625,-1.5625,-34.96875,-214.65625
1.5379E+12,817,0.5673828,0.2734375,-0.111328125,23.875,-21.34375,-182.0625
1.5379E+12,818,0.44726562,0.20019531,-0.15722656,27.84375,-11.15625,-136.09375
1.5379E+12,819,0.3798828,0.20996094,-0.15917969,-17.6875,15.46875,-77.21875
1.5379E+12,820,0.38671875,0.34179688,-0.23144531,-40.75,48.84375,-2.1875
1.5379E+12,821,0.7128906,0.34960938,-0.10253906,-78.78125,83.5625,85.625
1.5379E+12,822,0.9765625,0.5888672,-0.16699219,-71.375,112.9375,181.59375
1.5379E+12,823,1.0644531,0.44921875,-0.42285156,-30.9375,129.96875,250.875
1.5379E+12,824,1.2382812,0.375,-0.42773438,12.96875,90.34375,297.5625
1.5379E+12,825,1.4746094,0.07519531,-0.40234375,2.21875,88.6875,334.71875
1.5379E+12,826,1.7460938,0.17871094,-0.4716797,-73.65625,77.28125,349.0625
1.5379E+12,827,1.8447266,0.43554688,-0.55078125,-54.1875,55.9375,349.5
1.5379E+12,828,1.6923828,0.3828125,-0.5048828,24.75,30.96875,323.4375
1.5379E+12,829,1.4970703,0.28222656,-0.3935547,15.34375,28.15625,264.15625
1.5379E+12,830,1.3007812,0.24121094,-0.31445312,-12.71875,9.28125,170.65625
1.5379E+12,831,1.1220703,0.14160156,-0.27539062,-30.9375,-0.03125,102.25
1.5379E+12,832,0.9501953,0.2626953,-0.3125,-32.21875,-16.15625,54.9375
1.5379E+12,833,0.94628906,0.37890625,-0.29589844,-35.25,-20.84375,20.28125
1.5379E+12,834,0.8486328,0.35839844,-0.2529297,-20.71875,-18.40625,-1.75
1.5379E+12,835,0.8027344,0.3955078,-0.2578125,3.4375,-6.5,-17.15625
1.5379E+12,836,0.984375,0.36132812,-0.2109375,49.65625,-8.03125,-35.09375
1.5379E+12,837,1.0996094,0.42285156,0.01171875,74.4375,-2.4375,-73.53125
1.5379E+12,838,1.2236328,0.14160156,0.25097656,107.3125,-11.6875,-147.34375
1.5379E+12,839,1.3828125,0.08105469,0,114.84375,-8.59375,-198.96875
1.5379E+12,840,1.6367188,0.203125,-0.080078125,119.96875,-25.25,-228.875
1.5379E+12,841,1.6855469,0.37402344,0.041992188,75.40625,-23.25,-262.625
1.5379E+12,842,1.7685547,0.34375,0.15820312,127.71875,-24.75,-279.15625
1.5379E+12,843,1.5673828,0.23828125,0.14257812,150.90625,-41.0625,-282.59375
1.5379E+12,844,1.3125,0.21582031,0.08105469,108.65625,-49.0625,-274.03125
1.5379E+12,845,1.1025391,0.21484375,0.004882813,28.53125,-53.875,-262.3125
1.5379E+12,846,0.9746094,0.3935547,0.03515625,-21.46875,-53.03125,-245.90625
1.5379E+12,847,0.99121094,0.44628906,0.099609375,-12.96875,-42.65625,-222.78125
1.5379E+12,848,0.8623047,0.38476562,0.07714844,9.0625,-33.3125,-184.5625
1.5379E+12,849,0.6933594,0.41210938,-0.00390625,30.46875,-19.9375,-132.375
1.5379E+12,850,0.53808594,0.37402344,-0.06738281,39.5625,0.1875,-68.96875
1.5379E+12,851,0.51464844,0.37109375,-0.09863281,26.34375,28.75,6.28125
1.5379E+12,852,0.5644531,0.4248047,-0.2421875,20.40625,57.03125,100.65625
1.5379E+12,853,0.56640625,0.3544922,-0.35546875,17.40625,79.0625,181.9375
1.5379E+12,854,0.79003906,0.24609375,-0.24707031,-10.09375,110.75,233.65625
1.5379E+12,855,1.1210938,0.28222656,-0.4638672,-4.625,128.96875,265.625
1.5379E+12,856,1.3076172,0.17089844,-0.45117188,36.40625,86.1875,275.03125
1.5379E+12,857,1.390625,0.045898438,-0.26660156,-8.53125,84.6875,273.4375
1.5379E+12,858,1.4482422,0.15234375,-0.3310547,-48.9375,70.5625,268.3125
1.5379E+12,859,1.4580078,0.23632812,-0.31933594,-51.625,54.40625,251.53125
1.5379E+12,860,1.3935547,0.17773438,-0.36328125,-86.03125,38.46875,217.21875
1.5379E+12,861,1.2587891,0.3671875,-0.3125,-130.96875,14.25,180.375
1.5379E+12,862,1.1279297,0.22167969,-0.26953125,-87.4375,-6.75,147.65625
1.5379E+12,863,1.1484375,0.115234375,-0.34375,-25.5625,-24.53125,132.09375
1.5379E+12,864,1.2392578,-0.2998047,-0.40722656,-32.5625,-24.21875,125.8125
1.5379E+12,865,1.2480469,-0.13964844,-0.48535156,-95.1875,-33,95.03125
1.5379E+12,866,1.2460938,0.07421875,-0.37402344,-50.40625,-37.9375,68.90625
1.5379E+12,867,1.0478516,0.22558594,-0.2607422,27.4375,-38.375,32.96875
1.5379E+12,868,0.953125,0.08984375,0.0859375,83.34375,-28.125,-20.75
1.5379E+12,869,0.06347656,-0.31054688,0.51171875,14.125,-38.1875,-69.5
1.5379E+12,870,0.7714844,0.2763672,0.14160156,1.3125,50.125,-115.53125
1.5379E+12,871,1.0693359,-0.1328125,-0.16601562,82.71875,51.59375,-160.53125
1.5379E+12,872,1.2353516,0.078125,-0.1875,59.53125,53.53125,-196.09375
1.5379E+12,873,1.5380859,0.29101562,-0.014648438,121.53125,28.53125,-217.71875
1.5379E+12,874,1.5537109,0.2763672,0.19824219,216.625,7.15625,-244.0625
1.5379E+12,875,1.7626953,0.17480469,0.24902344,290.6875,-8.84375,-266.15625
1.5379E+12,876,1.7099609,0.14257812,0.23535156,253,-40.15625,-273.4375
1.5379E+12,877,1.5244141,0.16308594,0.15722656,117.40625,-46.75,-263.96875
1.5379E+12,878,1.4091797,0.40039062,0.14257812,47.15625,-43.8125,-247.125
1.5379E+12,879,1.2080078,0.41308594,0.18164062,71,-46.375,-225.9375
1.5379E+12,880,1.0166016,0.3251953,0.13574219,59.34375,-44.96875,-209.03125
1.5379E+12,881,0.8417969,0.3125,0.06542969,13.375,-38.25,-193.46875
1.5379E+12,882,0.6660156,0.35253906,0,-29.53125,-28.0625,-181.40625
1.5379E+12,883,0.45996094,0.43945312,-0.061523438,-18.71875,-10.34375,-162.34375
1.5379E+12,884,1.015625,0.5097656,-0.19921875,30.71875,111.46875,175.96875
1.5379E+12,885,1.2705078,0.51171875,-0.2783203,22.59375,126.0625,229.1875
1.5379E+12,886,1.3027344,0.28808594,-0.26171875,34.1875,107.25,264.53125
1.5379E+12,887,1.484375,0.203125,-0.296875,-1.8125,98.15625,282.40625
1.5379E+12,888,1.4707031,0.11230469,-0.328125,-30.3125,70.28125,278.5625
1.5379E+12,889,1.3857422,0.13769531,-0.38867188,-70.84375,62.8125,261.34375
1.5379E+12,890,1.4267578,0.18554688,-0.48046875,-40.8125,42.0625,240.59375
1.5379E+12,891,1.3261719,0.060546875,-0.41210938,-34.15625,21.75,224.5
1.5379E+12,892,1.2275391,0.07714844,-0.22167969,-88.53125,9.78125,200.6875
1.5379E+12,893,1.0732422,0.21191406,-0.33007812,-58.625,-9.625,160.28125
1.5379E+12,894,0.9824219,0.01171875,-0.3076172,-36.34375,-25.375,120.3125
1.5379E+12,895,0.84277344,-0.119140625,-0.31933594,-68.09375,-39.71875,87.21875
1.5379E+12,896,0.91015625,-0.20117188,-0.27734375,-124.71875,-39.71875,62.9375
1.5379E+12,897,1.1376953,0.032226562,-0.25390625,-151.90625,-37.09375,39.3125
1.5379E+12,898,0.9873047,0.32617188,-0.24511719,-68.9375,-33.3125,5.375
1.5379E+12,899,0.8076172,0.33496094,-0.18359375,48.59375,-14.375,-28.1875
1.5379E+12,900,0.9736328,0.47265625,-0.05078125,123.125,5.8125,-62.5625
1.5379E+12,901,1.0224609,0.4013672,-0.040039062,177.03125,7.875,-118.59375
1.5379E+12,902,1.1513672,0.14648438,0.01171875,195.53125,-4.5625,-176.03125
1.5379E+12,903,1.4130859,0.16210938,-0.020507812,174.28125,-28,-222.40625
1.5379E+12,904,1.6689453,0.15039062,0.020507812,130.34375,-46.84375,-260.3125
1.5379E+12,905,1.9433594,0.16796875,-0.01953125,101.84375,-52.46875,-283.1875
1.5379E+12,906,1.6396484,0.038085938,-0.03515625,72.59375,-71.15625,-294.4375
1.5379E+12,907,1.4306641,0.19433594,-0.095703125,19.75,-52.71875,-296.9375
1.5379E+12,908,1.2724609,0.18847656,-0.123046875,8.09375,-55.90625,-290.59375
1.5379E+12,909,1.1044922,0.2265625,-0.14355469,-13.40625,-46,-259.75
1.5379E+12,910,1.1699219,0.37597656,-0.16894531,3.375,-42.03125,-227.59375
1.5379E+12,911,1.0996094,0.27539062,-0.13378906,20.96875,-34.96875,-186.15625
1.5379E+12,912,1.1308594,0.31933594,-0.140625,26.28125,-10.1875,-135.5625
1.5379E+12,913,0.9511719,0.3017578,-0.07910156,39.8125,46.46875,-2.5625
1.5379E+12,914,0.82128906,0.24902344,-0.056640625,32.1875,87.84375,94.1875
1.5379E+12,915,0.72265625,0.07128906,-0.25,16.875,115.9375,160.40625
1.5379E+12,916,0.86035156,0.107421875,-0.3798828,6.25,92,204.96875
1.5379E+12,917,0.9716797,0.016601562,-0.2705078,-22.875,85.65625,261.96875
1.5379E+12,918,1.3251953,0.018554688,-0.30566406,-68.46875,93.09375,322.09375
1.5379E+12,919,1.6689453,0.15917969,-0.3779297,-103.5625,85.53125,356.21875
1.5379E+12,920,1.7851562,0.30859375,-0.546875,-97.03125,67.71875,358.53125
1.5379E+12,921,1.6601562,0.25,-0.3515625,-120.15625,34.625,322.5
1.5379E+12,922,1.3447266,0.3388672,-0.234375,-118.15625,10.75,247
1.5379E+12,923,1.1845703,0.18945312,-0.3408203,-83.46875,-8.46875,151.0625
1.5379E+12,924,1.1933594,0.025390625,-0.3486328,-120.03125,-23.1875,79.46875
1.5379E+12,925,1.2333984,0.20800781,-0.2578125,-178.3125,-31.0625,31.0625
1.5379E+12,926,0.9658203,0.48046875,-0.21972656,-179.59375,-28.5625,8.625
1.5379E+12,927,0.70410156,0.6503906,-0.18359375,-81.21875,-1.03125,-0.84375
1.5379E+12,928,0.8105469,0.6269531,-0.16113281,67.90625,28.34375,-11.59375
1.5379E+12,929,0.984375,0.5185547,-0.23242188,204.0625,38.59375,-38.625
1.5379E+12,930,1.0732422,0.22265625,-0.12011719,228.84375,22.78125,-109.75
1.5379E+12,931,1.3720703,0.036132812,-0.008789063,168.0625,3.96875,-180.78125
1.5379E+12,932,1.4316406,0.13476562,-0.046875,141.9375,-19.03125,-236.625
1.5379E+12,933,1.5791016,0.09082031,-0.119140625,112.6875,-38.375,-274.28125
1.5379E+12,934,1.5859375,0.09765625,-0.14257812,65.9375,-48.75,-290.78125
1.5379E+12,935,1.4707031,0.087890625,-0.14550781,36.03125,-53.28125,-288.3125
1.5379E+12,936,1.2802734,0.16308594,-0.12988281,12,-54.96875,-276
1.5379E+12,937,1.1923828,0.2734375,-0.14648438,6.96875,-44.96875,-266.28125
1.5379E+12,938,1.2890625,0.18554688,-0.1953125,34.4375,-42.46875,-229.1875
1.5379E+12,939,1.3251953,0.19921875,-0.107421875,51.40625,-48.6875,-179.625
1.5379E+12,940,1.140625,0.111328125,-0.10058594,20.84375,-21.96875,-116.15625
1.5379E+12,941,1.1005859,0.25097656,-0.1953125,4.21875,3.375,-41.375
1.5379E+12,942,0.88183594,0.14453125,-0.12988281,0.8125,23.46875,36.4375
1.5379E+12,943,0.8466797,0.1875,-0.16992188,-13.59375,56.78125,101.75
1.5379E+12,944,0.83984375,0.11425781,-0.20410156,-10.0625,58.375,151.75
1.5379E+12,945,0.85253906,0.13378906,-0.21191406,-41.0625,67.71875,196.59375
1.5379E+12,946,1.0683594,0.115234375,-0.29785156,-52.90625,66.375,246.90625
1.5379E+12,947,1.2734375,0.11230469,-0.27929688,-76.75,57.6875,292.53125
1.5379E+12,948,1.4472656,0.18164062,-0.26953125,-105.75,44.5625,323.25
1.5379E+12,949,1.6923828,0.25878906,-0.2548828,-135.40625,26.75,327.53125
1.5379E+12,950,1.4912109,0.3095703,-0.109375,-176.5625,1.3125,284.125
1.5379E+12,951,1.2646484,0.49902344,-0.20898438,-143.78125,-19.28125,193.0625
1.5379E+12,952,1.3193359,0.13378906,-0.22753906,-97.625,-20.25,120.625
1.5379E+12,953,1.2978516,0.31054688,-0.24804688,-106.25,-27.9375,70.6875
1.5379E+12,954,1.0859375,0.4560547,-0.14746094,-84.9375,-25.9375,37.65625
1.5379E+12,955,0.9394531,0.49023438,-0.13769531,-51.4375,-3.59375,22.84375
1.5379E+12,956,0.9560547,0.5732422,-0.20019531,25.96875,15.6875,4.03125
1.5379E+12,957,1.0439453,0.5078125,-0.21875,130.9375,18.9375,-32.34375
1.5379E+12,958,0.9121094,0.23046875,-0.14160156,169.8125,8.25,-94.28125
1.5379E+12,959,1.1679688,0.13671875,-0.12988281,126.5625,-2.84375,-154.15625
1.5379E+12,960,1.2568359,0.123046875,-0.0703125,101.53125,-21.90625,-204.28125
1.5379E+12,961,1.3369141,0.18164062,-0.05859375,91.09375,-25.1875,-238.59375
1.5379E+12,962,1.5126953,0.20703125,-0.111328125,128.9375,-33.625,-250
1.5379E+12,963,1.4140625,0.045898438,-0.030273438,118.625,-58.15625,-245.46875
1.5379E+12,964,1.2441406,0.119140625,-0.07128906,52.5625,-46.75,-230.53125
1.5379E+12,965,1.1181641,0.107421875,-0.087890625,36.9375,-46.6875,-218.375
1.5379E+12,966,1.0546875,0.17578125,-0.12890625,18.21875,-36.90625,-192.875
1.5379E+12,967,1.1816406,0.19628906,-0.033203125,24.125,-36.25,-154.53125
1.5379E+12,968,1.0419922,0.103515625,-0.07128906,25.59375,-19.46875,-118.28125
1.5379E+12,969,1.2177734,0.14257812,-0.091796875,11.9375,-2.96875,-77.03125
1.5379E+12,970,1.1542969,0.1875,-0.12402344,12.28125,15.65625,-17.4375
1.5379E+12,971,1.0722656,0.17285156,-0.11328125,-5.03125,46.78125,61.90625
1.5379E+12,972,0.9189453,0.14550781,-0.20605469,-20.375,64.59375,131.0625
1.5379E+12,973,0.91503906,0.12109375,-0.27929688,-39.28125,68.1875,175.59375
1.5379E+12,974,1.0087891,0.12207031,-0.34765625,-46.375,65.3125,210.8125
1.5379E+12,975,1.25,0.09472656,-0.4375,-46.65625,50.4375,239.625
1.5379E+12,976,1.2226562,0.09765625,-0.43847656,-75.65625,36.6875,255.1875
1.5379E+12,977,1.3603516,0.16015625,-0.4189453,-98.375,19.90625,263.125
1.5379E+12,978,1.3193359,0.19726562,-0.2783203,-115.9375,-1.875,248.65625
1.5379E+12,979,1.2070312,0.32128906,-0.23144531,-98.3125,-19.5,202.9375
1.5379E+12,980,0.9785156,0.044921875,-0.21875,-58.28125,-25.625,173.65625
1.5379E+12,981,0.9902344,0.15234375,-0.3203125,-60.28125,-26.90625,134.46875
1.5379E+12,982,0.9580078,-0.0390625,-0.25683594,-55.59375,-28.3125,97.28125
1.5379E+12,983,1.0234375,0.021484375,-0.2578125,-61.75,-21.40625,65.25
1.5379E+12,984,0.9814453,0.064453125,-0.3154297,-57.78125,-7.84375,51.09375
1.5379E+12,985,0.8652344,0.31640625,-0.25976562,-5.03125,3.8125,30.46875
1.5379E+12,986,1.1113281,0.26367188,-0.15917969,144.8125,24.625,-68.65625
1.5379E+12,987,0.86621094,0.10058594,-0.13867188,160.59375,7.875,-125.59375
1.5379E+12,988,1.1298828,0.2705078,-0.052734375,163.84375,-6.09375,-172.125
1.5379E+12,989,1.4150391,0.18457031,-0.008789063,195.21875,-34.84375,-213.25
1.5379E+12,990,1.8613281,0.021484375,0.032226562,129.28125,-75.71875,-272.21875
1.5379E+12,991,1.6044922,0.10058594,0.012695313,26.15625,-71.28125,-291.5625
1.5379E+12,992,1.4238281,0.375,-0.06738281,0.375,-50.53125,-297.78125
1.5379E+12,993,1.1376953,0.31445312,-0.021484375,32.375,-49.59375,-283.125
1.5379E+12,994,0.9238281,0.36035156,-0.006835938,14.96875,-39.40625,-257.6875
1.5379E+12,995,0.7998047,0.46484375,-0.05859375,27.96875,-31.1875,-228.375
1.5379E+12,996,0.54785156,0.44921875,-0.12109375,18.9375,-27.875,-202.09375
1.5379E+12,997,0.3876953,0.6357422,-0.22558594,-18.96875,-8.96875,-179.5625
1.5379E+12,998,0.3935547,0.7558594,-0.18554688,15.65625,-4,-144.71875
1.5379E+12,999,0.3798828,0.6660156,-0.15820312,40.6875,9.46875,-90.03125
1.5379E+12,1000,0.42871094,0.6699219,-0.16992188,33.90625,35.78125,-16.84375
1.5379E+12,1001,0.7109375,0.52734375,-0.15332031,42.9375,72.59375,62.03125
1.5379E+12,1002,0.828125,0.4267578,-0.125,43.90625,101.15625,116.03125
1.5379E+12,1003,0.7470703,0.33007812,-0.16015625,51.28125,117.21875,157.125
1.5379E+12,1004,0.90234375,0.18457031,-0.29003906,26.375,121.34375,185.5
1.5379E+12,1005,0.9472656,0.2607422,-0.30566406,16.3125,94.8125,212.78125
1.5379E+12,1006,1.1376953,0.07910156,-0.23144531,-8.9375,87.1875,248.28125
1.5379E+12,1007,1.4199219,0.123046875,-0.25976562,-63.6875,83.5625,279.3125
1.5379E+12,1008,1.4931641,0.26367188,-0.3076172,-78.28125,69.90625,284
1.5379E+12,1009,1.484375,0.25683594,-0.32226562,-62.65625,57.28125,264.15625
1.5379E+12,1010,1.3369141,0.24121094,-0.23242188,-46.0625,37.75,219.5
1.5379E+12,1011,1.3691406,0.26464844,-0.23046875,-14.125,28.71875,152.84375
1.5379E+12,1012,1.1162109,0.16015625,-0.21484375,21.75,12.96875,96.375
1.5379E+12,1013,0.8964844,0.10839844,-0.26367188,26.875,10.6875,66.28125
1.5379E+12,1014,1.140625,-0.30566406,-0.20019531,-13.40625,-38.5,16.78125
1.5379E+12,1015,0.9658203,0.09765625,-0.11816406,-3.6875,-35.75,-22.875
1.5379E+12,1016,0.76953125,0.2890625,-0.055664062,97.875,-40.4375,-67.75
1.5379E+12,1017,0.82714844,0.3720703,0.057617188,160.78125,-45.6875,-115.59375
1.5379E+12,1018,1.2041016,0.15625,0.047851562,191.375,-60.90625,-159.65625
1.5379E+12,1019,1.6074219,0.095703125,0.04296875,128.375,-85.8125,-209.65625
1.5379E+12,1020,1.8994141,-0.03125,0.09667969,62.34375,-98.6875,-260.375
1.5379E+12,1021,1.6875,-0.053710938,-0.07910156,-49.59375,-82.9375,-298.9375
1.5379E+12,1022,1.4833984,0.21582031,-0.21777344,-84.15625,-58.46875,-327.5
1.5379E+12,1023,1.4716797,0.26367188,-0.109375,-68.59375,-40.5625,-327.09375
1.5379E+12,1024,1.4023438,0.4140625,-0.036132812,-22.6875,-17.375,-306.03125
1.5379E+12,1025,1.5488281,0.38867188,-0.16992188,46.09375,-23.375,-282.40625
1.5379E+12,1026,1.2529297,0.24121094,-0.1953125,43.40625,-23.90625,-244.625
1.5379E+12,1027,1.0976562,0.21191406,-0.16210938,33.59375,-14.875,-199.03125
1.5379E+12,1028,0.7988281,0.16699219,-0.119140625,30.59375,-0.03125,-142.03125
1.5379E+12,1029,0.76660156,0.13085938,-0.068359375,31.8125,23.40625,-61.59375
1.5379E+12,1030,0.5253906,0.1171875,-0.111328125,11.3125,55.9375,31.5
1.5379E+12,1031,0.5078125,0.1171875,-0.25976562,12.28125,86,107.375
1.5379E+12,1032,0.6738281,0.20214844,-0.3330078,10.21875,87.40625,161.25
1.5379E+12,1033,0.87890625,0.19726562,-0.38867188,5.40625,88.59375,212.21875
1.5379E+12,1034,1.0166016,0.203125,-0.42578125,-32.5625,83.4375,264.53125
1.5379E+12,1035,1.2148438,0.19238281,-0.4560547,-41.59375,84.96875,325.25
1.5379E+12,1036,1.5888672,0.18554688,-0.5078125,-50.6875,85.59375,374.03125
1.5379E+12,1037,1.8613281,0.32910156,-0.50097656,-56.96875,60.0625,379.15625
1.5379E+12,1038,1.7285156,0.3251953,-0.28125,-35.9375,26.1875,340.53125
1.5379E+12,1039,1.3300781,0.19335938,-0.43164062,-17.375,9.46875,258.1875
1.5379E+12,1040,1.2558594,-0.024414062,-0.43164062,-6.09375,-10.96875,165.03125
1.5379E+12,1041,1.2363281,0.002929688,-0.4404297,-41.71875,-25.375,108.15625
1.5379E+12,1042,1.1484375,0.18652344,-0.32226562,-84.3125,-38.5625,65.75
1.5379E+12,1043,1.0976562,0.1796875,-0.1171875,-98.4375,-28.96875,31.8125
1.5379E+12,1044,1.0185547,0.36523438,-0.09667969,-70.34375,-19.5625,-6.59375
1.5379E+12,1045,0.9580078,0.50097656,-0.15136719,37.75,-3.53125,-49.625
1.5379E+12,1046,0.73535156,0.3466797,-0.10644531,123.625,-6.8125,-99.125
1.5379E+12,1047,0.97265625,0.3955078,0.0234375,162,5.375,-152.71875
1.5379E+12,1048,1.1523438,0.27929688,0.07519531,210.78125,-12.6875,-191.34375
1.5379E+12,1049,1.6103516,0.33398438,0.05859375,200.15625,-27.6875,-218
1.5379E+12,1050,1.6796875,0.2607422,0.14355469,188.5625,-58.03125,-248.09375
1.5379E+12,1051,1.9023438,0.21679688,0.16894531,135.40625,-64.25,-282.78125
1.5379E+12,1052,1.7568359,0.36132812,0.09863281,107.4375,-61.875,-310.40625
1.5379E+12,1053,1.5839844,0.47070312,0.0859375,146.375,-72.3125,-321.34375
1.5379E+12,1054,1.2626953,0.46484375,0.24902344,191.125,-71.53125,-307.84375
1.5379E+12,1055,1.0693359,0.24316406,0.08886719,168.0625,-70.0625,-269.78125
1.5379E+12,1056,0.8701172,0.2919922,-0.0546875,58.75,-75.25,-242.4375
1.5379E+12,1057,0.6328125,0.36914062,-0.13183594,-14.5625,-67.5,-204.53125
1.5379E+12,1058,0.5576172,0.45996094,-0.18945312,-39.40625,-40.8125,-149.84375
1.5379E+12,1059,0.57421875,0.45117188,-0.16015625,-21.8125,-4.75,-70.1875
1.5379E+12,1060,0.7207031,0.39941406,-0.23242188,-25.625,63.875,25.03125
1.5379E+12,1061,0.9589844,0.18457031,-0.12695312,-6.4375,99.03125,87.90625
1.5379E+12,1062,1.2382812,0.23535156,-0.21484375,-6.1875,135.75,148.0625
1.5379E+12,1063,1.3701172,0.048828125,-0.3173828,27.25,113,206.3125
1.5379E+12,1064,1.1679688,0.028320312,-0.40039062,-57.84375,116.90625,227.84375
1.5379E+12,1065,1.0839844,0.20019531,-0.4326172,-77.625,81.75,258.71875
1.5379E+12,1066,1.4150391,0.19140625,-0.44140625,-42.09375,71.90625,313.3125
1.5379E+12,1067,1.6855469,0.29296875,-0.49121094,-50.40625,64.09375,336.375
1.5379E+12,1068,1.6865234,0.45898438,-0.4140625,-39.71875,41.34375,316.96875
1.5379E+12,1069,1.4042969,0.54003906,-0.46679688,51,25.46875,248.90625
1.5379E+12,1070,1.1210938,0.06738281,-0.49609375,126.375,18.4375,145.09375
1.5379E+12,1071,0.98828125,-0.3359375,-0.46679688,120.5,2.21875,101.8125
1.5379E+12,1072,0.8769531,-0.26367188,-0.42285156,9.1875,-17.0625,84.59375
1.5379E+12,1073,0.80859375,-0.16796875,-0.36914062,-68.59375,-21.28125,90.46875
1.5379E+12,1074,0.6972656,-0.23632812,-0.2890625,-48.1875,-45.46875,79.34375
1.5379E+12,1075,0.7158203,-0.3515625,-0.19238281,-20.53125,-53.8125,72.15625
1.5379E+12,1076,0.890625,-0.43164062,-0.068359375,-31.53125,-53.5,67.9375
1.5379E+12,1077,0.9667969,-0.37304688,-0.0625,-49.46875,-40.5,49.4375
1.5379E+12,1078,0.9892578,-0.15527344,-0.091796875,-35.875,-23.59375,15.1875
1.5379E+12,1079,0.9765625,0.13476562,0.017578125,15.78125,-4.4375,-27.03125
1.5379E+12,1080,0.9638672,0.27734375,-0.07519531,115.125,10.34375,-97.59375
1.5379E+12,1081,0.77246094,0.13183594,-0.049804688,157.5625,-11.15625,-165.46875
1.5379E+12,1082,1.1123047,0.1796875,-0.12597656,148.65625,-10.84375,-214.90625
1.5379E+12,1083,1.6972656,0.12597656,-0.103515625,147,-43.875,-256.90625
1.5379E+12,1084,1.8886719,0.095703125,0.018554688,98.34375,-71.625,-291.875
1.5379E+12,1085,2.0029297,0.14648438,-0.020507812,88.28125,-78.59375,-310.125
1.5379E+12,1086,1.9902344,0.09375,-0.025390625,54.46875,-87.5,-311.875
1.5379E+12,1087,1.5830078,0.18164062,-0.0859375,-22.75,-79.75,-299.6875
1.5379E+12,1088,1.703125,0.29296875,-0.015625,1.5625,-62.0625,-283.75
1.5379E+12,1089,1.5976562,0.15429688,-0.07519531,49.9375,-65.28125,-258.84375
1.5379E+12,1090,1.2978516,0.09765625,-0.10839844,51.65625,-50.8125,-221.25
1.5379E+12,1091,1.1494141,0.1015625,-0.10253906,48.53125,-41.59375,-164.90625
1.5379E+12,1092,0.8251953,0.0546875,-0.068359375,15.40625,-16.9375,-84.96875
1.5379E+12,1093,0.65234375,0.14453125,-0.087890625,-4.125,22.28125,3.90625
1.5379E+12,1094,0.5419922,0.072265625,-0.15527344,-9.3125,51.46875,84.78125
1.5379E+12,1095,0.6152344,0.14746094,-0.14453125,-25.1875,71.71875,160.71875
1.5379E+12,1096,0.83496094,0.16210938,-0.26367188,-16.21875,93.40625,245.25
1.5379E+12,1097,1.0566406,0.041992188,-0.27148438,-27.0625,98.03125,313.1875
1.5379E+12,1098,1.3310547,0.041015625,-0.29882812,-72.1875,107.4375,367.9375
1.5379E+12,1099,1.8740234,0.19042969,-0.36035156,-101,95.90625,409.71875
1.5379E+12,1100,2.0029297,0.27246094,-0.35742188,-94.53125,61.125,415.15625
1.5379E+12,1101,1.8212891,0.32617188,-0.21484375,-111.84375,31.4375,369.21875
1.5379E+12,1102,1.53125,0.57421875,-0.38085938,-68.59375,5.875,261.1875
1.5379E+12,1103,1.2890625,0.15527344,-0.30078125,-10.09375,-7.1875,146.5
1.5379E+12,1104,1.3349609,0.07128906,-0.28027344,-52.34375,-14.3125,73.5625
1.5379E+12,1105,1.1474609,0.24902344,-0.2783203,-112.96875,-8.21875,26.90625
1.5379E+12,1106,0.8496094,0.59765625,-0.25976562,-128.09375,2.03125,-5.125
1.5379E+12,1107,0.79589844,0.6591797,-0.21972656,2.46875,20.53125,-24.28125
1.5379E+12,1108,0.98339844,0.5371094,-0.28027344,157.5625,26.8125,-49.625
1.5379E+12,1109,0.88183594,0.25683594,-0.21582031,219.375,-1.5625,-101.0625
1.5379E+12,1110,1.2304688,0.06933594,-0.12597656,158.84375,-22.75,-167.84375
1.5379E+12,1111,1.5126953,0.010742188,-0.20019531,122.65625,-64.125,-233.09375
1.5379E+12,1112,1.6953125,0.07324219,-0.1484375,90.0625,-77.0625,-282.90625
1.5379E+12,1113,1.8828125,0.041992188,-0.15722656,93.65625,-104.0625,-311.40625
1.5379E+12,1114,1.5517578,0.052734375,-0.083984375,40.25,-106.125,-305.28125
1.5379E+12,1115,1.3525391,0.22167969,-0.15625,22.1875,-94.03125,-281.3125
1.5379E+12,1116,1.1152344,0.18847656,-0.107421875,23.9375,-98.5625,-246.46875
1.5379E+12,1117,0.9785156,0.2109375,-0.043945312,7.59375,-79.6875,-211.65625
1.5379E+12,1118,1.0849609,0.2529297,-0.22460938,11.8125,-64.375,-177.65625
1.5379E+12,1119,1.0703125,0.2705078,-0.21386719,-11.875,-53.5,-146.28125
1.5379E+12,1120,0.98535156,0.34179688,-0.20898438,-14.125,-26.15625,-106.5625
1.5379E+12,1121,1.0292969,0.3486328,-0.20898438,14.125,-3.84375,-44.1875
1.5379E+12,1122,0.9277344,0.22558594,-0.140625,-7.59375,18.5625,39.4375
1.5379E+12,1123,0.80078125,0.25097656,-0.099609375,-62.84375,56.71875,126.90625
1.5379E+12,1124,0.828125,0.3095703,-0.13769531,-77.125,80.78125,190.8125
1.5379E+12,1125,0.9375,0.3125,-0.22558594,-41.78125,85.71875,243.96875
1.5379E+12,1126,1.1113281,0.21191406,-0.26171875,-0.28125,80.65625,296.8125
1.5379E+12,1127,1.3828125,0.12207031,-0.27148438,-29.46875,88.6875,333.625
1.5379E+12,1128,1.5625,0.109375,-0.32910156,-85.3125,80.09375,352.84375
1.5379E+12,1129,1.78125,0.19140625,-0.3544922,-113.375,61.25,351.6875
1.5379E+12,1130,1.5810547,0.27929688,-0.25585938,-116.5625,29.25,310.3125
1.5379E+12,1131,1.3115234,0.45507812,-0.30078125,-94.8125,15.75,232.4375
1.5379E+12,1132,1.0195312,0.30273438,-0.24609375,-38.4375,-10.125,138.8125
1.5379E+12,1133,0.9296875,0.09277344,-0.2939453,-56.4375,-11.6875,68.0625
1.5379E+12,1134,1.0039062,0.05078125,-0.30371094,-142.8125,-15,16.90625
1.5379E+12,1135,1.0732422,0.3251953,-0.3388672,-187.90625,-15.25,-34
1.5379E+12,1136,0.92871094,0.50097656,-0.328125,-100.4375,-7.625,-67.5
1.5379E+12,1137,0.7558594,0.51464844,-0.2998047,47.9375,11.96875,-82.875
1.5379E+12,1138,1.0351562,0.421875,-0.26171875,164.8125,41.65625,-82.875
1.5379E+12,1139,1.0966797,0.25,-0.34960938,235.5,19.78125,-85.25
1.5379E+12,1140,1.0488281,0.037109375,-0.13769531,177.28125,-7.1875,-115.65625
1.5379E+12,1141,1.5048828,0.25390625,-0.06933594,122.8125,-28.3125,-150.3125
1.5379E+12,1142,1.8095703,0.08300781,-0.012695313,142.28125,-75.90625,-194.75
1.5379E+12,1143,1.7402344,-0.17382812,-0.018554688,44.625,-91.84375,-244.8125
1.5379E+12,1144,1.5888672,-0.030273438,-0.12890625,-42.21875,-81.84375,-281.3125
1.5379E+12,1145,1.3974609,0.125,-0.20605469,-77.6875,-70.90625,-299.125
1.5379E+12,1146,1.1376953,0.21972656,-0.16699219,-62.28125,-59.96875,-294.25
1.5379E+12,1147,0.9501953,0.19726562,-0.109375,-18.78125,-48.375,-275.5625
1.5379E+12,1148,0.859375,0.26171875,-0.16601562,3.6875,-37.8125,-251.09375
1.5379E+12,1149,0.9091797,0.3095703,-0.22167969,33.90625,-24.09375,-203.5625
1.5379E+12,1150,0.92578125,0.3671875,-0.24902344,37.5,-6.03125,-127.4375
1.5379E+12,1151,0.88671875,0.37695312,-0.25,32.75,24.96875,-33.75
1.5379E+12,1152,0.86035156,0.3798828,-0.19140625,0.4375,57.21875,55.125
1.5379E+12,1153,0.95996094,0.4560547,-0.15039062,-10.46875,83.8125,143.75
1.5379E+12,1154,0.8457031,0.26464844,-0.26953125,9.46875,94.5625,206.5
1.5379E+12,1155,0.8847656,0.14550781,-0.26660156,-12.96875,82.09375,235.40625
1.5379E+12,1156,1.0068359,0.14746094,-0.24511719,-44.09375,74.125,264.34375
1.5379E+12,1157,1.2705078,0.103515625,-0.29003906,-68.75,71,306.15625
1.5379E+12,1158,1.5048828,0.11621094,-0.32910156,-96.09375,60.4375,330.9375
1.5379E+12,1159,1.6572266,0.2265625,-0.31640625,-124.5625,39.09375,326.1875
1.5379E+12,1160,1.5927734,0.27148438,-0.15820312,-149.40625,10.03125,273.8125
1.5379E+12,1161,1.2158203,0.32128906,-0.16015625,-155.875,-8.84375,198
1.5379E+12,1162,1.1269531,0.22753906,-0.18457031,-78.34375,-24.34375,123.34375
1.5379E+12,1163,1.2910156,0.23339844,-0.26171875,-78.28125,-28.84375,68.96875
1.5379E+12,1164,1.2246094,0.22753906,-0.25390625,-78.65625,-37.8125,37.90625
1.5379E+12,1165,1.0244141,0.22558594,-0.22949219,-85.78125,-27.21875,25.28125
1.5379E+12,1166,0.7558594,0.30566406,-0.26757812,-76.28125,-1.375,18.6875
1.5379E+12,1167,0.8222656,0.5292969,-0.23730469,-19.875,22.71875,4.59375
1.5379E+12,1168,0.9765625,0.60546875,-0.17675781,116.28125,32.4375,-18.5625
1.5379E+12,1169,0.92285156,0.37597656,-0.11035156,220.3125,14.40625,-66.65625
1.5379E+12,1170,1.1044922,0.1953125,-0.00390625,199.4375,-3.84375,-130.5
1.5379E+12,1171,1.3066406,0.123046875,-0.0078125,153.59375,-31.1875,-183.34375
1.5379E+12,1172,1.4980469,0.13378906,0.017578125,110.6875,-45.9375,-223.03125
1.5379E+12,1173,1.6142578,0.19042969,0.022460938,99.875,-55.90625,-250.375
1.5379E+12,1174,1.5517578,0.1484375,0.010742188,55.875,-52.21875,-270.4375
1.5379E+12,1175,1.4677734,0.2861328,0.0078125,40.3125,-37.75,-279.59375
1.5379E+12,1176,1.3447266,0.33398438,0.043945312,37.1875,-33.78125,-270.875
1.5379E+12,1177,1.2158203,0.38378906,0.061523438,49.46875,-28.3125,-247.1875
1.5379E+12,1178,0.9589844,0.26171875,-0.032226562,37.25,-31.28125,-220.28125
1.5379E+12,1179,0.6826172,0.2939453,-0.06933594,-7.3125,-27.5625,-200.3125
1.5379E+12,1180,0.5732422,0.45996094,-0.11328125,-15.53125,-9.25,-179.1875
1.5379E+12,1181,0.6035156,0.5283203,-0.12597656,36.03125,0.125,-139.46875
1.5379E+12,1182,0.6123047,0.5097656,-0.14941406,68.3125,12.84375,-74.34375
1.5379E+12,1183,0.64746094,0.4765625,-0.17773438,52.21875,42.25,6.71875
1.5379E+12,1184,0.7841797,0.41992188,-0.14746094,27.96875,77.53125,85.40625
1.5379E+12,1185,0.5605469,0.46484375,-0.25976562,17.53125,125.4375,161.9375
1.5379E+12,1186,0.9169922,0.453125,-0.5732422,73.25,144.5,200.09375
1.5379E+12,1187,1.2285156,-0.013671875,-0.22167969,71.0625,108.53125,217.09375
1.5379E+12,1188,1.3964844,0.080078125,-0.14648438,-11.625,106.875,219.125
1.5379E+12,1189,1.2978516,0.072265625,-0.34375,-31.28125,83.875,207.09375
1.5379E+12,1190,1.2636719,0.049804688,-0.36035156,-39.71875,68.0625,194.03125
1.5379E+12,1191,1.3408203,0.030273438,-0.3701172,-93.25,66.46875,203.125
1.5379E+12,1192,1.3300781,0.16113281,-0.37890625,-133.40625,48.0625,212.28125
1.5379E+12,1193,1.265625,0.107421875,-0.23242188,-141.03125,22.1875,213.25
1.5379E+12,1194,1.1162109,0.24707031,-0.2109375,-119.0625,5.8125,199.46875
1.5379E+12,1195,1.0839844,0.11816406,-0.23046875,-62.53125,-5.90625,166.375
1.5379E+12,1196,1.0429688,0.018554688,-0.328125,-56.625,-10.65625,133.3125
1.5379E+12,1197,1.1181641,-0.19433594,-0.38964844,-38.6875,-23.40625,117.75
1.5379E+12,1198,1.2265625,-0.5107422,-0.41601562,-97.6875,-27.6875,113.34375
1.5379E+12,1199,1.2714844,-0.34570312,-0.44921875,-156.34375,-38.0625,105.84375
1.5379E+12,1200,1.1708984,-0.103515625,-0.35742188,-95.5,-46.0625,85.875
1.5379E+12,1201,1.0195312,0.1171875,-0.16015625,-66.5625,-33.96875,37.90625
1.5379E+12,1202,0.6503906,0.15917969,0.072265625,-43.375,-10.40625,-5.90625
1.5379E+12,1203,0.3330078,0.3935547,-0.008789063,11.125,11.78125,-51.375
1.5379E+12,1204,0.6064453,0.14648438,0.11425781,98.65625,47.375,-98.6875
1.5379E+12,1205,0.9941406,0.041992188,0.055664062,119.96875,59.34375,-151.46875
1.5379E+12,1206,1.1601562,0.13183594,0.036132812,185.8125,54.875,-194.15625
1.5379E+12,1207,1.6240234,-0.051757812,0.140625,208.75,32.5625,-231.1875
1.5379E+12,1208,1.7949219,0.16894531,0.15429688,205.90625,14.78125,-263.3125
1.5379E+12,1209,1.8886719,0.091796875,0.17382812,255.21875,-13.96875,-281
1.5379E+12,1210,1.7626953,0.07324219,0.08984375,224.75,-39.46875,-291.3125
1.5379E+12,1211,1.6474609,0.18261719,0.0859375,144.25,-53.625,-296.0625
1.5379E+12,1212,1.4785156,0.3125,0.0703125,87.65625,-56.5625,-281.1875
1.5379E+12,1213,1.2832031,0.421875,0.06347656,71,-55.9375,-250.71875
1.5379E+12,1214,1.0683594,0.421875,0.02734375,58.375,-59.96875,-227.90625
1.5379E+12,1215,0.8876953,0.38867188,-0.04296875,13.9375,-64.8125,-220.34375
1.5379E+12,1216,0.6982422,0.46191406,-0.018554688,-14.4375,-57.78125,-213.75
1.5379E+12,1217,0.6953125,0.52246094,-0.004882813,23.03125,-41.78125,-186.9375
1.5379E+12,1218,0.54785156,0.3671875,-0.043945312,53.0625,-27.03125,-128.96875
1.5379E+12,1219,0.46191406,0.33789062,-0.064453125,35.0625,6.375,-48.9375
1.5379E+12,1220,0.80078125,0.42089844,-0.09863281,-14.4375,60.8125,35.65625
1.5379E+12,1221,0.8251953,0.47460938,-0.13769531,-30.75,104.4375,147.28125
1.5379E+12,1222,0.9160156,0.21972656,-0.32714844,-27.8125,146.75,242.5
1.5379E+12,1223,1.0869141,-0.18164062,-0.5234375,-41.34375,138.09375,347.59375
1.5379E+12,1224,1.7431641,0.35546875,-0.4111328,-5.21875,92.4375,381.90625
1.5379E+12,1225,1.6660156,-0.030273438,-0.3564453,47.625,70.4375,393.25
1.5379E+12,1226,1.8183594,0.008789063,-0.5263672,2.90625,76.6875,360.46875
1.5379E+12,1227,1.7167969,0.051757812,-0.5419922,-31.09375,61.65625,310.5
1.5379E+12,1228,1.65625,0.33984375,-0.36035156,-106.59375,37.84375,241.21875
1.5379E+12,1229,1.2353516,0.265625,-0.16992188,-25.90625,4.84375,156.1875
1.5379E+12,1230,1.0087891,0.024414062,-0.24902344,1.90625,3.6875,112.8125
1.5379E+12,1231,0.80078125,0.32128906,-0.27539062,2.03125,-7,84.59375
1.5379E+12,1232,0.73535156,0.037109375,-0.3564453,-15.65625,-11.875,69.84375
1.5379E+12,1233,0.7402344,-0.095703125,-0.3642578,-81.34375,-23.71875,67.03125
1.5379E+12,1234,0.9267578,-0.19042969,-0.3017578,-141.6875,-12.0625,41.625
1.5379E+12,1235,1.1298828,0.2763672,-0.3984375,-116.6875,-10.1875,-11.03125
1.5379E+12,1236,0.8955078,0.10546875,-0.3671875,59.90625,-19.6875,-51.03125
1.5379E+12,1237,1.2041016,0.3720703,-0.09277344,141.125,-8.96875,-102.84375
1.5379E+12,1238,1.3994141,0.2109375,0.034179688,282.90625,-34.46875,-157.78125
1.5379E+12,1239,1.1884766,-0.06347656,0.23730469,312.09375,-68.59375,-222.84375
1.5379E+12,1240,1.5478516,-0.23828125,0.107421875,240.125,-86.46875,-263.375
1.5379E+12,1241,1.5498047,-0.057617188,-0.030273438,104.21875,-101.90625,-280.6875
1.5379E+12,1242,1.6503906,0.21972656,-0.044921875,19.96875,-91.40625,-287.21875
1.5379E+12,1243,1.4785156,0.22363281,0.024414062,-8.71875,-84.34375,-274.96875
1.5379E+12,1244,1.2626953,0.29101562,0.021484375,-4.875,-70.0625,-251.03125
1.5379E+12,1245,1.0449219,0.25683594,-0.024414062,11.75,-70.90625,-229.5
1.5379E+12,1246,0.98339844,0.28125,-0.059570312,-17.5,-61.75,-215.6875
1.5379E+12,1247,1.0761719,0.38671875,-0.076171875,-34.9375,-46.75,-194.5
1.5379E+12,1248,1.2519531,0.5830078,-0.12597656,-8.03125,-20.25,-170.40625
1.5379E+12,1249,1.2197266,0.49609375,-0.16894531,44.875,-12.625,-150.625
1.5379E+12,1250,1.1025391,0.3515625,-0.16210938,73.21875,5.875,-112.90625
1.5379E+12,1251,0.9121094,0.22851562,-0.15136719,63.6875,23.03125,-49.8125
1.5379E+12,1252,0.7548828,0.1796875,-0.23339844,-9,66.71875,51.21875
1.5379E+12,1253,0.66308594,0.16503906,-0.3017578,-42.59375,76.96875,142.15625
1.5379E+12,1254,0.62402344,0.13867188,-0.37402344,-52.84375,79.25,206.4375
1.5379E+12,1255,0.78125,0.15820312,-0.35253906,-20.78125,71.375,267.15625
1.5379E+12,1256,1.1162109,0.022460938,-0.41308594,-19.03125,89.875,332.9375
1.5379E+12,1257,1.5585938,0.041992188,-0.5029297,-77.1875,98.96875,386.59375
1.5379E+12,1258,1.8720703,0.24316406,-0.49316406,-108.0625,68.8125,407.15625
1.5379E+12,1259,1.7578125,0.29101562,-0.23535156,-117.78125,28.65625,370.5
1.5379E+12,1260,1.3759766,0.7890625,-0.21582031,-99.53125,1.53125,239.3125
1.5379E+12,1261,0.9013672,0.14648438,-0.17773438,31.03125,-3.84375,95.71875
1.5379E+12,1262,0.9501953,-0.06640625,-0.17089844,7.53125,-9.6875,40.46875
1.5379E+12,1263,0.79003906,0.33984375,-0.17382812,-85.3125,-8.09375,17.03125
1.5379E+12,1264,0.87402344,0.05859375,-0.22851562,-128.9375,-8.40625,19.34375
1.5379E+12,1265,1.1142578,-0.27734375,-0.30566406,-166.71875,1.96875,33.09375
1.5379E+12,1266,1.4091797,-0.34960938,-0.609375,-108.125,-5.59375,38.8125
1.5379E+12,1267,1.2675781,-0.453125,-0.7402344,-27.875,-5.65625,79.46875
1.5379E+12,1268,1.1904297,-0.45214844,-0.72558594,75.84375,-6.6875,116.09375
1.5379E+12,1269,1.1025391,-0.51171875,-0.5,112.09375,-16.59375,90.46875
1.5379E+12,1270,0.42089844,-0.50683594,-0.43066406,107.875,-56.875,40.65625
1.5379E+12,1271,0.22265625,-0.60839844,-0.15527344,46.96875,-54.0625,15.09375
1.5379E+12,1272,0.46679688,-0.10253906,-0.14453125,5.8125,-52.03125,-14.34375
1.5379E+12,1273,0.56640625,0.061523438,-0.052734375,71.4375,-53.375,-57.25
1.5379E+12,1274,0.70214844,0.16308594,0.10449219,72.40625,-53.15625,-90.21875
1.5379E+12,1275,0.9375,0.35839844,0.10449219,103.46875,-42.46875,-128.84375
1.5379E+12,1276,1.2724609,0.22265625,0.103515625,90.125,-40.15625,-179.8125
1.5379E+12,1277,1.3808594,0.29492188,0.08300781,78.9375,-35.1875,-221.90625
1.5379E+12,1278,1.6191406,0.30664062,0.08691406,102.8125,-31.46875,-253.65625
1.5379E+12,1279,1.9228516,0.21582031,0.107421875,121.25,-40.4375,-278.4375
1.5379E+12,1280,1.9697266,0.18164062,0.11816406,101.9375,-45.46875,-292.90625
1.5379E+12,1281,1.9423828,0.18652344,0.109375,100.3125,-48.9375,-291.75
1.5379E+12,1282,1.8164062,0.18261719,0.06542969,97.0625,-50.40625,-286.8125
1.5379E+12,1283,1.5048828,0.15332031,0.0859375,84.625,-51.3125,-279.84375
1.5379E+12,1284,1.2441406,0.15722656,0.015625,61.65625,-47.90625,-265.75
1.5379E+12,1285,1.0253906,0.10058594,-0.03515625,15.34375,-43.5,-253.09375
1.5379E+12,1286,0.7158203,0.23339844,-0.053710938,-45.03125,-33,-229.90625
1.5379E+12,1287,0.515625,0.46289062,-0.15039062,-9.3125,-7.375,-190.84375
1.5379E+12,1288,0.43066406,0.40039062,-0.2109375,42.375,4.40625,-131.53125
1.5379E+12,1289,0.3388672,0.4873047,-0.26367188,48.96875,37,-62.3125
1.5379E+12,1290,0.41210938,0.4970703,-0.40820312,61.5,87.84375,18.4375
1.5379E+12,1291,0.73046875,0.3857422,-0.31445312,60.5,130.5,97.84375
1.5379E+12,1292,1.2373047,0.41601562,-0.17871094,28.84375,168.71875,170
1.5379E+12,1293,1.4130859,0.10839844,-0.19628906,51.53125,152.59375,222.0625
1.5379E+12,1294,1.5556641,-0.076171875,-0.23339844,-15.0625,141.9375,249.34375
1.5379E+12,1295,1.5341797,0.20507812,-0.35546875,-43.125,115.75,254.34375
1.5379E+12,1296,1.3876953,0.02734375,-0.43066406,-27.625,100.53125,271.0625
1.5379E+12,1297,1.3818359,0.068359375,-0.578125,-32.3125,93.40625,277.78125
1.5379E+12,1298,1.4443359,-0.056640625,-0.5332031,-57.84375,76.125,271.5625
1.5379E+12,1299,1.4248047,0.052734375,-0.3515625,-110.75,57.21875,271.71875
1.5379E+12,1300,1.390625,0.05859375,-0.3876953,-116.90625,36.6875,246.40625
1.5379E+12,1301,1.2255859,0.34570312,-0.46875,-131.1875,9.96875,200.3125
1.5379E+12,1302,0.82714844,0.29003906,-0.41503906,-16.53125,-25.6875,121.28125
1.5379E+12,1303,0.7714844,-0.17675781,-0.39160156,7.90625,-34.78125,68
1.5379E+12,1304,0.8173828,-0.080078125,-0.2890625,-86.28125,-38.9375,35.65625
1.5379E+12,1305,1.0478516,0.20703125,-0.3154297,-127,-33.6875,-6.09375
1.5379E+12,1306,0.9296875,0.56152344,-0.3623047,7.09375,-29.21875,-52.0625
1.5379E+12,1307,0.98828125,0.40234375,-0.2265625,217,-20.5,-90.75
1.5379E+12,1308,1.4150391,0.16992188,0.44921875,349.8125,-29.15625,-136.65625
1.5379E+12,1309,1.1025391,-0.34179688,0.4501953,288.59375,-63.875,-164.71875
1.5379E+12,1310,0.9716797,-0.140625,0.3388672,158.78125,-44.40625,-194.34375
1.5379E+12,1311,1.2431641,0.014648438,0.15136719,151.03125,-58.40625,-226.6875
1.5379E+12,1312,2.0029297,-0.001953125,0.14257812,119.65625,-80.25,-252.875
1.5379E+12,1313,1.9277344,-0.10546875,0.045898438,102.0625,-117.40625,-261.53125
1.5379E+12,1314,1.6298828,-0.0546875,-0.16894531,49.28125,-119.125,-261.71875
1.5379E+12,1315,1.2763672,0.028320312,-0.20898438,-10.90625,-120.90625,-262.1875
1.5379E+12,1316,1.0800781,0.12207031,-0.09472656,-74.875,-92.28125,-247.1875
1.5379E+12,1317,0.8935547,0.3154297,-0.068359375,-33.84375,-73.90625,-216.71875
1.5379E+12,1318,1.0351562,0.31933594,-0.016601562,38.71875,-58.34375,-179.75
1.5379E+12,1319,1.1357422,0.2939453,-0.08984375,66.3125,-39.53125,-130.3125
1.5379E+12,1320,1.0800781,0.21386719,-0.14648438,67.65625,-24.53125,-79.15625
1.5379E+12,1321,1.3544922,0.34960938,-0.37597656,66.625,4.78125,-31.125
1.5379E+12,1322,0.9375,0.3388672,-0.10449219,124.65625,0.5,33.15625
1.5379E+12,1323,0.73046875,-0.047851562,0.10546875,-5.09375,99.03125,105.90625
1.5379E+12,1324,0.8535156,-0.001953125,-0.09375,-35.875,125.9375,157.59375
1.5379E+12,1325,0.8466797,0.068359375,-0.20996094,-61.6875,114.75,214.46875
1.5379E+12,1326,1.0927734,0.033203125,-0.26953125,-68.53125,123.96875,273.6875
1.5379E+12,1327,1.4169922,-9.77E-04,-0.37890625,-83.21875,116.40625,309.09375
1.5379E+12,1328,1.7509766,0.03515625,-0.43164062,-137.90625,102.9375,324.90625
1.5379E+12,1329,1.6884766,0.2548828,-0.38867188,-185.03125,65.5625,296.4375
1.5379E+12,1330,1.4003906,0.26660156,-0.19042969,-185.15625,23.8125,242.75
1.5379E+12,1331,1.140625,0.3720703,-0.18554688,-91.65625,-5.125,173.53125
1.5379E+12,1332,1.1142578,0.09375,-0.25683594,-46.375,-19.40625,106.03125
1.5379E+12,1333,1.203125,0.04296875,-0.2685547,-123.375,-23.65625,51.03125
1.5379E+12,1334,1.109375,0.20117188,-0.3076172,-160.875,-28.5625,8.5
1.5379E+12,1335,0.77441406,0.30664062,-0.24804688,-129.5625,-19.21875,-12.375
1.5379E+12,1336,0.7392578,0.46484375,-0.25097656,-49,14,-17.03125
1.5379E+12,1337,0.82714844,0.51953125,-0.23730469,63.875,41.34375,-21.65625
1.5379E+12,1338,0.8154297,0.4794922,-0.2685547,188.9375,33.71875,-42.0625
1.5379E+12,1339,0.9345703,0.23046875,-0.11621094,232.5,15.15625,-90.4375
1.5379E+12,1340,1.3457031,0.12402344,-0.018554688,199.125,-13.46875,-140.125
1.5379E+12,1341,1.6328125,0.0390625,0.005859375,158.46875,-53.4375,-183.34375
1.5379E+12,1342,1.6025391,-0.0625,-0.005859375,96.46875,-77.5,-219.46875
1.5379E+12,1343,1.46875,-0.053710938,-0.099609375,12.34375,-78.0625,-244.1875
1.5379E+12,1344,1.3222656,0.08300781,-0.21777344,-48,-70.46875,-257.5
1.5379E+12,1345,1.1572266,0.21777344,-0.15722656,-65.09375,-55.40625,-257.625
1.5379E+12,1346,1.1064453,0.3125,-0.11816406,-9.4375,-41.90625,-248.03125
1.5379E+12,1347,1.1171875,0.16894531,-0.10839844,61.125,-40.8125,-213.96875
1.5379E+12,1348,1.0234375,0.15332031,-0.13769531,78.28125,-33.96875,-167.40625
1.5379E+12,1349,1.0107422,0.21582031,-0.24121094,78.4375,-13.71875,-110.96875
1.5379E+12,1350,1.0722656,0.17285156,-0.25,70.21875,2.75,-47.84375
1.5379E+12,1351,1.0488281,0.15136719,-0.1640625,32.5625,29.4375,5.3125
1.5379E+12,1352,1.0712891,0.2265625,-0.13085938,5.75,63.6875,59.6875
1.5379E+12,1353,0.92285156,0.234375,-0.23828125,7.34375,85.03125,115.53125
1.5379E+12,1354,0.8779297,0.10839844,-0.2939453,-11.875,88.46875,156.125
1.5379E+12,1355,1.0888672,0.053710938,-0.234375,-41.1875,84.4375,195.875
1.5379E+12,1356,1.1933594,0.026367188,-0.18554688,-80.71875,77.28125,231.15625
1.5379E+12,1357,1.2763672,0.12109375,-0.23339844,-124.84375,72.03125,245.71875
1.5379E+12,1358,1.2880859,0.19335938,-0.2529297,-130.15625,55,244.5
1.5379E+12,1359,1.3027344,0.20800781,-0.23828125,-129.90625,38.65625,228.65625
1.5379E+12,1360,1.2685547,0.2578125,-0.1640625,-102.6875,15.03125,194.9375
1.5379E+12,1361,1.0869141,0.15722656,-0.16699219,-70.34375,3.625,159.25
1.5379E+12,1362,0.98339844,0.16503906,-0.19921875,-70.15625,-2.78125,118.78125
1.5379E+12,1363,0.9423828,0.12597656,-0.21191406,-68.15625,-11.8125,76.65625
1.5379E+12,1364,0.9980469,0.09667969,-0.23925781,-56.0625,-16.59375,51.6875
1.5379E+12,1365,1.0966797,0.107421875,-0.23828125,-52.78125,-9.875,22.03125
1.5379E+12,1366,1.0429688,0.24609375,-0.2861328,-33.84375,2.59375,-0.125
1.5379E+12,1367,0.921875,0.19238281,-0.28125,-7.3125,25.15625,-8.40625
1.5379E+12,1368,1.0761719,0.38476562,-0.2578125,30.96875,47.1875,-26.59375
1.5379E+12,1369,1.4042969,0.359375,-0.1953125,105.375,30.84375,-61.03125
1.5379E+12,1370,0.83691406,0.17382812,-0.10546875,114.21875,11,-122.375
1.5379E+12,1371,1.1933594,0.2529297,-0.09277344,150.65625,-1.5625,-189.9375
1.5379E+12,1372,1.390625,-0.08203125,-0.033203125,168.25,-48.25,-229.4375
1.5379E+12,1373,1.4248047,0.015625,-0.09863281,52.5,-54.84375,-241.4375
1.5379E+12,1374,1.4599609,0.20507812,-0.14648438,23.09375,-57.53125,-233.34375
1.5379E+12,1375,1.1796875,0.17578125,-0.10449219,16.4375,-68.03125,-202.75
1.5379E+12,1376,0.9248047,0.18164062,-0.07714844,-0.84375,-58.53125,-171.8125
1.5379E+12,1377,0.7939453,0.099609375,-0.08203125,-11.15625,-52.09375,-141.65625
1.5379E+12,1378,0.75878906,0.12695312,-0.099609375,-12.4375,-51.125,-114.5
1.5379E+12,1379,0.8125,0.14746094,-0.083984375,-22.625,-38.75,-81.65625
1.5379E+12,1380,1.1386719,0.3720703,-0.11425781,-13.71875,-3.65625,-36.8125
1.5379E+12,1381,1.3955078,0.21582031,-0.14648438,51.71875,10.8125,7.15625
1.5379E+12,1382,1.3115234,0.17089844,-0.1640625,68.4375,29.0625,34
1.5379E+12,1383,1.2636719,0.14453125,-0.06933594,70.59375,40.25,67.625
1.5379E+12,1384,1.2666016,0.16601562,-0.13183594,42.75,70.375,116.40625
1.5379E+12,1385,0.92578125,0.10546875,-0.17675781,17.125,71.375,146.1875
1.5379E+12,1386,0.97753906,0.083984375,-0.17382812,-36,73.875,162.3125
1.5379E+12,1387,1.1054688,0.09472656,-0.12988281,-56.9375,59.65625,184.8125
1.5379E+12,1388,1.1005859,-0.5751953,0.15820312,-98.71875,61.28125,262.40625
1.5379E+12,1389,1.7089844,0.36914062,-0.16992188,-170.21875,73.1875,281.5
1.5379E+12,1390,1.1464844,0.34570312,-0.29882812,-16.40625,35.1875,253.59375
1.5379E+12,1391,1.3242188,-0.064453125,-0.203125,-15.96875,46.65625,205.28125
1.5379E+12,1392,1.1367188,0.10839844,-0.21289062,-34.46875,30.96875,145.34375
1.5379E+12,1393,0.9248047,-0.13574219,-0.21289062,-33.90625,14.65625,100.34375
1.5379E+12,1394,0.86621094,-0.1328125,-0.3330078,-135.09375,5.375,74.53125
1.5379E+12,1395,0.8457031,-0.23828125,-0.37402344,-164.40625,-17.125,60.75
1.5379E+12,1396,0.99902344,-0.3154297,-0.43359375,-172.40625,-27.3125,41.625
1.5379E+12,1397,1.0898438,-0.18457031,-0.44433594,-119,-38.5,32.28125
1.5379E+12,1398,0.9667969,-0.17382812,-0.3828125,-36.65625,-37.59375,30.78125
1.5379E+12,1399,0.96484375,-0.01953125,-0.29003906,40.3125,-24.75,19.40625
1.5379E+12,1400,1.1220703,0.14746094,-0.1015625,103.40625,-7,-21.28125
1.5379E+12,1401,0.84765625,0.28808594,-0.078125,221.53125,-16.34375,-77.21875
1.5379E+12,1402,0.7988281,0.2685547,0.15234375,318.625,-30.75,-131.09375
1.5379E+12,1403,1.0976562,0.09472656,0.18554688,310.21875,-46.6875,-172.25
1.5379E+12,1404,1.296875,-0.08203125,0.078125,215.40625,-79.6875,-191.15625
1.5379E+12,1405,1.3671875,0.047851562,-0.030273438,52.8125,-90.75,-208.625
1.5379E+12,1406,1.5332031,0.24902344,-0.012695313,-16.53125,-91.21875,-235.03125
1.5379E+12,1407,1.6757812,0.27539062,0.08105469,-22,-80.84375,-263.375
1.5379E+12,1408,1.5507812,0.3466797,0.109375,18.09375,-72.125,-286.375
1.5379E+12,1409,1.3398438,0.3330078,0.043945312,42.25,-63.65625,-294.71875
1.5379E+12,1410,1.1728516,0.4013672,-0.016601562,31.46875,-56.0625,-285.46875
1.5379E+12,1411,1.0058594,0.5683594,-0.008789063,9.3125,-39.34375,-268.5625
1.5379E+12,1412,0.8574219,0.71191406,-0.037109375,62.59375,-25.96875,-233.5625
1.5379E+12,1413,0.77441406,0.5625,-0.006835938,96.75,-11.53125,-177.84375
1.5379E+12,1414,0.89160156,0.5576172,-0.08984375,65.875,9.28125,-105.28125
1.5379E+12,1415,1.0830078,0.44433594,-0.1015625,21.5625,37.4375,-39.90625
1.5379E+12,1416,0.73535156,0.29101562,-0.047851562,23.09375,68.625,-13.65625
1.5379E+12,1417,1.1132812,0.36132812,-0.11425781,34.9375,89.5,25.21875
1.5379E+12,1418,0.9501953,0.13574219,-0.1953125,56.40625,90.84375,93.21875
1.5379E+12,1419,0.8925781,0.03515625,-0.3310547,-11.5625,89.8125,140.03125
1.5379E+12,1420,0.84472656,0.14355469,-0.29003906,-37.8125,74.1875,190.625
1.5379E+12,1421,0.9785156,0.14355469,-0.3310547,-38.5,72.90625,258.25
1.5379E+12,1422,1.203125,0.111328125,-0.38476562,-52.34375,84.0625,315.0625
1.5379E+12,1423,1.5253906,0.15136719,-0.3701172,-98.125,81.625,331.375
1.5379E+12,1424,1.6181641,0.3173828,-0.27148438,-90.625,47.3125,314.28125
1.5379E+12,1425,1.453125,0.3701172,-0.14550781,-48.625,19.96875,242.4375
1.5379E+12,1426,1.1455078,0.31933594,-0.11425781,-4.25,8.1875,128.1875
1.5379E+12,1427,1.1044922,0.056640625,-0.17675781,23.75,4.21875,55.71875
1.5379E+12,1428,0.9140625,0.0390625,-0.21777344,-22.5625,-6.03125,38.09375
1.5379E+12,1429,0.8779297,0.060546875,-0.30859375,-51.96875,-13.21875,55.90625
1.5379E+12,1430,0.96484375,-0.06542969,-0.36328125,-60.46875,-12.0625,78.5625
1.5379E+12,1431,1.1445312,-0.057617188,-0.42089844,-72.5,-14.03125,70.4375
1.5379E+12,1432,1.0966797,-0.016601562,-0.3232422,-45.75,-27.5,56.28125
1.5379E+12,1433,1.1777344,-0.036132812,-0.12011719,-16.15625,-20.5,41.375
1.5379E+12,1434,1.5498047,-0.024414062,0.21582031,59.15625,-12.6875,-19.96875
1.5379E+12,1435,0.859375,-0.032226562,0.060546875,147.65625,-0.40625,-88.3125
1.5379E+12,1436,0.7011719,-0.06640625,0.055664062,68.4375,13.25,-138.96875
1.5379E+12,1437,0.77734375,0.2626953,0.028320312,-0.40625,38.34375,-168.75
1.5379E+12,1438,0.98339844,0.48339844,-0.013671875,106.71875,31.03125,-180.125
1.5379E+12,1439,1.3066406,0.42089844,-0.030273438,208.21875,15.53125,-188.03125
1.5379E+12,1440,1.7724609,0.2998047,0.030273438,232.125,-21.03125,-192.5625
1.5379E+12,1441,1.7001953,0.22460938,-0.014648438,215.34375,-50.65625,-215.75
1.5379E+12,1442,1.5351562,0.057617188,0.021484375,158.40625,-87.5625,-238.28125
1.5379E+12,1443,1.3574219,0.16015625,0.012695313,67.40625,-89.15625,-241.8125
1.5379E+12,1444,1.2119141,0.25195312,-0.010742188,31.15625,-83.90625,-227.09375
1.5379E+12,1445,1.0830078,0.32910156,0.009765625,15.90625,-83.125,-202.875
1.5379E+12,1446,1.0429688,0.27929688,0.038085938,23.28125,-77.1875,-177.78125
1.5379E+12,1447,1.0664062,0.31054688,-0.028320312,-5.59375,-61.6875,-150.8125
1.5379E+12,1448,1.1132812,0.4296875,-0.038085938,-4.5625,-35.125,-117.65625
1.5379E+12,1449,1.0507812,0.3251953,-0.08203125,49.53125,-9.5625,-73.1875
1.5379E+12,1450,0.99316406,0.25195312,-0.08984375,70.15625,20.03125,-13.0625
1.5379E+12,1451,0.79296875,0.30859375,-0.15429688,47.5,58.25,75.5625
1.5379E+12,1452,0.6123047,0.10644531,-0.34179688,10.03125,98.40625,150.03125
1.5379E+12,1453,0.78027344,0.14355469,-0.31835938,-63.9375,111.28125,189.46875
1.5379E+12,1454,1.0722656,0.3876953,-0.42578125,-57.90625,94.75,225.15625
1.5379E+12,1455,1.0927734,0.29296875,-0.36816406,-9.4375,67.78125,254.9375
1.5379E+12,1456,1.203125,0.18261719,-0.39648438,-41.71875,71.6875,262.34375
1.5379E+12,1457,1.3339844,0.22949219,-0.4716797,-73.59375,71.1875,269.34375
1.5379E+12,1458,1.4033203,0.2763672,-0.45214844,-75.46875,52.875,258.90625
1.5379E+12,1459,1.2685547,0.30664062,-0.24511719,-72.59375,27.90625,227.59375
1.5379E+12,1460,1.1132812,0.1875,-0.22070312,-38.5,14.96875,184.5625
1.5379E+12,1461,1.0048828,0.08105469,-0.19140625,-44.34375,6.78125,138.3125
1.5379E+12,1462,0.90625,-0.02734375,-0.28125,-70.34375,3.6875,98.28125
1.5379E+12,1463,0.9169922,-0.12109375,-0.47070312,-78.03125,-8.34375,78.5
1.5379E+12,1464,0.9082031,-0.33007812,-0.51660156,-98.4375,-23.40625,74.46875
1.5379E+12,1465,1.0712891,-0.27539062,-0.5439453,-152.8125,-17.4375,62.875
1.5379E+12,1466,1.1708984,-0.029296875,-0.484375,-88.53125,-35.1875,41.9375
1.5379E+12,1467,0.98046875,-0.11816406,-0.36523438,-13.46875,-35.03125,27.21875
1.5379E+12,1468,1.0439453,0.0625,-0.20800781,25.46875,-20,10.6875
1.5379E+12,1469,1.1386719,0.064453125,-0.11425781,92,-3.15625,-24.84375
1.5379E+12,1470,0.6044922,0.109375,-0.13964844,146.75,-6.03125,-57.0625
1.5379E+12,1471,0.63964844,0.03515625,0.047851562,177.625,0.03125,-89.15625
1.5379E+12,1472,0.9394531,0.033203125,0.045898438,126.0625,0.75,-127.3125
1.5379E+12,1473,1.0712891,0.13183594,0.12011719,108.25,-9.25,-168.4375
1.5379E+12,1474,1.3378906,0.18261719,0.052734375,115.4375,-4,-205.5625
1.5379E+12,1475,1.6210938,0.1796875,0.08203125,124.46875,-21.78125,-226.875
1.5379E+12,1476,1.6416016,0.20117188,0.07714844,109.28125,-22.3125,-242.0625
1.5379E+12,1477,1.4287109,0.3359375,0.15625,107.8125,-28.375,-266.09375
1.5379E+12,1478,1.21875,0.29785156,0.060546875,86.03125,-28.5,-255.84375
1.5379E+12,1479,0.96484375,0.3857422,0.01171875,38.78125,-26.59375,-239.75
1.5379E+12,1480,0.8417969,0.48046875,-0.12988281,4,-19.875,-230.53125
1.5379E+12,1481,0.7128906,0.6464844,-0.16601562,-15.96875,-19.21875,-221
1.5379E+12,1482,0.5839844,0.7558594,-0.16992188,28.90625,-13.28125,-197.125
1.5379E+12,1483,0.39746094,0.59375,-0.24414062,75.78125,-4.0625,-153.4375
1.5379E+12,1484,0.2861328,0.45214844,-0.24804688,59.46875,19.65625,-71.53125
1.5379E+12,1485,0.48535156,0.43066406,-0.123046875,18.53125,83.21875,14.78125
1.5379E+12,1486,1.0292969,0.58691406,-0.07910156,13.6875,131.1875,88.09375
1.5379E+12,1487,0.8076172,0.47070312,-0.12109375,58.5625,136.125,143.4375
1.5379E+12,1488,1.1113281,0.26757812,-0.1640625,35.90625,133.6875,175.46875
1.5379E+12,1489,0.859375,0.18945312,-0.3828125,-1.6875,106.84375,194.21875
1.5379E+12,1490,0.92578125,0.20410156,-0.3095703,-46.65625,81.8125,218.3125
1.5379E+12,1491,1.0195312,0.23632812,-0.25976562,-56.4375,75.9375,257.28125
1.5379E+12,1492,1.3867188,0.18066406,-0.2783203,-69.8125,79.0625,294.6875
1.5379E+12,1493,1.4804688,0.27539062,-0.31933594,-108.625,65.625,294.5
1.5379E+12,1494,1.4228516,0.34375,-0.2548828,-97.9375,44.4375,265.6875
1.5379E+12,1495,1.2685547,0.3955078,-0.234375,-32.375,22.1875,194.40625
1.5379E+12,1496,1.1376953,0.13574219,-0.111328125,-13.46875,9.96875,100.03125
1.5379E+12,1497,1.0292969,0.07421875,-0.140625,-12.5,7.21875,50.1875
1.5379E+12,1498,0.9248047,0.047851562,-0.11035156,-17.3125,-5.21875,35.46875
1.5379E+12,1499,0.93066406,-0.13476562,-0.119140625,-54.90625,-2.3125,55.375
1.5379E+12,1500,1,-0.07421875,-0.34570312,-88.90625,1.3125,74.03125
1.5379E+12,1501,1.078125,-0.59765625,-0.53222656,-115.21875,-11.59375,87.09375
1.5379E+12,1502,1.4521484,-0.21289062,-0.4716797,-217.125,-21.28125,61.78125
1.5379E+12,1503,1.4335938,0.17773438,-0.21386719,-102.8125,-56.9375,24.90625
1.5379E+12,1504,1.2119141,0.002929688,-0.03125,25.90625,-62.0625,-10.1875
1.5379E+12,1505,1.1220703,0.05078125,-0.0078125,96.65625,-49.375,-50.15625
1.5379E+12,1506,0.84375,0.13574219,-0.0625,181.96875,-41.3125,-61.625
1.5379E+12,1507,0.7373047,0.20019531,0.05078125,190.4375,-23.25,-85.375
1.5379E+12,1508,0.98046875,0.28515625,0.051757812,144.25,-7.375,-137.1875
1.5379E+12,1509,1.2597656,0.19335938,0.123046875,150.21875,-21.71875,-192.4375
1.5379E+12,1510,1.6220703,0.13085938,0.15039062,157.3125,-33.90625,-239.0625
1.5379E+12,1511,1.6542969,0.07910156,0.06347656,142.34375,-48.75,-266.71875
1.5379E+12,1512,1.5693359,0.091796875,-0.07128906,92.96875,-55.78125,-283.25
1.5379E+12,1513,1.4658203,0.15917969,-0.052734375,45.1875,-47.71875,-280.5625
1.5379E+12,1514,1.3408203,0.234375,0.012695313,30.78125,-40.28125,-267.21875
1.5379E+12,1515,1.2626953,0.2685547,0.014648438,41.28125,-34.78125,-247.625
1.5379E+12,1516,1.15625,0.24609375,-0.01953125,55.3125,-33.125,-231.4375
1.5379E+12,1517,1.1083984,0.15527344,-0.11035156,29.9375,-25.3125,-209.09375
1.5379E+12,1518,1.1962891,0.40039062,-0.17382812,12.90625,-6.8125,-182
1.5379E+12,1519,1.1083984,0.42382812,-0.22167969,39.875,1.78125,-157.65625
1.5379E+12,1520,0.9921875,0.5107422,-0.22265625,60.625,16.25,-130.5
1.5379E+12,1521,0.96777344,0.5058594,-0.119140625,107.4375,33.53125,-77.9375
1.5379E+12,1522,0.65625,0.31054688,-0.21386719,56.71875,70.28125,5.8125
1.5379E+12,1523,0.56640625,0.22851562,-0.40722656,-34.84375,107.6875,74.03125
1.5379E+12,1524,0.56933594,0.3388672,-0.421875,-50.09375,97.0625,125.8125
1.5379E+12,1525,0.62597656,0.20898438,-0.43554688,-9.25,89.125,190.4375
1.5379E+12,1526,0.75097656,0.080078125,-0.40820312,-30.125,84.375,248.1875
1.5379E+12,1527,0.9199219,0.04296875,-0.43359375,-85.5,95,305.3125
1.5379E+12,1528,1.4072266,0.11816406,-0.45410156,-120.09375,96.875,355.90625
1.5379E+12,1529,1.8056641,0.32226562,-0.39160156,-136.75,61.96875,378.78125
1.5379E+12,1530,1.8300781,0.36132812,-0.2421875,-103.3125,23.625,360.53125
1.5379E+12,1531,1.4677734,0.3828125,-0.26464844,-55.75,7.59375,288.75
1.5379E+12,1532,1.0859375,0.2548828,-0.32226562,-0.53125,-4.75,182.5
1.5379E+12,1533,1.0185547,-0.01953125,-0.24609375,-2.59375,-3.28125,107.78125
1.5379E+12,1534,0.96875,-0.0546875,-0.35058594,-36.125,-17.3125,72.875
1.5379E+12,1535,0.87109375,-0.15527344,-0.39453125,-81.15625,-27.5625,72.5625
1.5379E+12,1536,0.90625,-0.15234375,-0.35546875,-102.28125,-20.125,52.25
1.5379E+12,1537,1.0644531,0.09082031,-0.38378906,-49.96875,-14.4375,10.8125
1.5379E+12,1538,0.8027344,0.076171875,-0.26464844,47.4375,-14.625,-15.1875
1.5379E+12,1539,1.0380859,0.26660156,-0.14941406,69.125,14.84375,-48.53125
1.5379E+12,1540,1.2753906,0.359375,-0.11035156,142.46875,9.125,-99.40625
1.5379E+12,1541,0.9238281,0.072265625,-0.05078125,175.8125,-6.5,-160.625
1.5379E+12,1542,1.3173828,0.08984375,-0.03515625,175.1875,-19.5625,-215.6875
1.5379E+12,1543,1.5166016,-0.010742188,-0.03515625,132.71875,-48.625,-260.4375
1.5379E+12,1544,1.4648438,0.099609375,-0.017578125,79.0625,-57.59375,-289
1.5379E+12,1545,1.3339844,0.14257812,-0.03515625,2.21875,-70.40625,-235.71875
1.5379E+12,1546,1.1074219,0.16015625,-0.099609375,-7.84375,-65.46875,-211.71875
1.5379E+12,1547,0.8876953,0.06347656,-0.061523438,-16.46875,-60.46875,-187.75
1.5379E+12,1548,0.9794922,0.22851562,-0.14941406,-10.46875,-4.0625,-61.625
1.5379E+12,1549,1.0292969,0.3564453,-0.22265625,25.65625,35.1875,0
1.5379E+12,1550,0.9794922,0.140625,-0.1875,-25.96875,90.65625,211.75
1.5379E+12,1551,1.1455078,0.20996094,-0.17089844,-43.625,75.46875,214.96875
1.5379E+12,1552,1.3095703,0.12792969,-0.18066406,-26.40625,56.28125,216.625
1.5379E+12,1553,1.2470703,0.10449219,-0.20898438,-81.75,49.53125,201.53125
1.5379E+12,1554,1.3193359,0.1875,-0.265625,-111.96875,41.34375,187.4375
1.5379E+12,1555,1.2441406,0.22363281,-0.3359375,-107.875,21.375,176.15625
1.5379E+12,1556,1.1337891,0.20996094,-0.21875,-158.71875,7.71875,156.5625
1.5379E+12,1557,0.9902344,0.4091797,-0.19042969,-136.875,-10.65625,125.75
1.5379E+12,1558,0.90527344,0.2421875,-0.20019531,-79.03125,-24.875,93.03125
1.5379E+12,1559,0.95410156,0.16992188,-0.3076172,-93.375,-31.90625,63.375
1.5379E+12,1560,1.0849609,0.1640625,-0.28222656,-125.46875,-27.3125,29.71875
1.5379E+12,1561,1.1552734,0.31445312,-0.37304688,-98.65625,-25.5,-1.34375
1.5379E+12,1562,0.8330078,0.35742188,-0.34960938,-24.6875,-18.90625,-15.8125
1.5379E+12,1563,0.90234375,0.38085938,-0.25878906,43.90625,11.5625,-21.59375
1.5379E+12,1564,1.1220703,0.3359375,-0.22851562,112.625,34.0625,-32.03125
1.5379E+12,1565,1.0371094,0.28515625,-0.27148438,164.6875,18.5,-59.625
1.5379E+12,1566,0.97265625,0.14648438,-0.095703125,172.25,2.9375,-111.5625
1.5379E+12,1567,1.2783203,0.10253906,-0.009765625,146.1875,-20.5625,-157.15625
1.5379E+12,1568,1.3837891,0.04296875,-0.06347656,119.59375,-48.4375,-189.875
1.5379E+12,1569,1.4824219,-0.07519531,-0.08300781,26.8125,-65.40625,-210.375
1.5379E+12,1570,1.3916016,0.076171875,-0.115234375,-59.1875,-57.53125,-223.125
1.5379E+12,1571,1.1992188,0.13671875,-0.16113281,-66.8125,-46.6875,-227.03125
1.5379E+12,1572,0.9580078,0.25683594,-0.15039062,-40.0625,-37.28125,-218.0625
1.5379E+12,1573,0.8486328,0.20410156,-0.12890625,21.4375,-26.59375,-194.34375
1.5379E+12,1574,1.3642578,0.48339844,-0.23535156,86.09375,67.65625,42.53125
1.5379E+12,1575,1.5214844,0.39746094,-0.20703125,51.21875,91.6875,90.59375
1.5379E+12,1576,1.0078125,0.3388672,-0.3388672,-78.78125,29.0625,202.53125
1.5379E+12,1577,1.0488281,0.16503906,-0.28125,-111.84375,10.5625,217.78125
1.5379E+12,1578,1.125,0.25976562,-0.22949219,-169.21875,-0.59375,221.25
1.5379E+12,1579,1.015625,0.25195312,-0.0546875,-144.9375,-25.6875,141
1.5379E+12,1580,0.9121094,0.23925781,-0.12207031,-107.53125,-21.28125,87.90625
1.5379E+12,1581,0.80566406,0.0703125,-0.23144531,-91.03125,-21.34375,46.40625
1.5379E+12,1582,0.8798828,0.11816406,-0.3876953,-112.65625,-19.875,14.59375
1.5379E+12,1583,1.0351562,0.15234375,-0.53125,-93.71875,-23.71875,-15.5
1.5379E+12,1584,1.1230469,0.2685547,-0.6796875,-22.875,-29.65625,-34.40625
1.5379E+12,1585,0.74121094,0.099609375,-0.5410156,34.09375,-29.875,-32.46875
1.5379E+12,1586,0.77246094,0.15917969,-0.35351562,19.0625,4.71875,-29.78125
1.5379E+12,1587,1.1650391,0.3466797,-0.29785156,47.9375,39.03125,-25.8125
1.5379E+12,1588,1.0595703,0.37597656,-0.2607422,164.5625,20.90625,-38.375
1.5379E+12,1589,0.9189453,0.26171875,-0.041015625,220.375,19.96875,-84.71875
